Folder: Al-DWTR-Characterization-data/TGA-MS/BASELINE1.D

Note: README.md
# Al-DWTR-Characterization

The Diversity of Aluminum-Based DrinkingWater Treatment Residuals for Use in Environmental Remediation 

Wallace et al. (2023) 

# Citation for the use of these data

Samuel M. Wallace(a), Yuchi Zhang(a), Lang Zhou(b), Qing Ma(c), William E. Guise(c), Nancy D. Denslow(d), Jean-Claude Bonzongo(b), and Jean-Fran√ßois Gaillard(a)(2023) *Environmental Science: Water Research & Technology* - in revision - 

a) Department of Civil and Environmental Engineering, Northwestern University, 2145
Sheridan Road, Evanston, IL 60208, USA. E-mail: jf-gaillard@northwestern.edu

b) Engineering School of Sustainable Infrastructure and Environment, Department of
Environmental Engineering Sciences, University of Florida, PO Box 116450, Gainesville,
FL 32611, USA.

c) DND-CAT Synchrotron Research Center, Northwestern University, 9700 South Cass
Avenue, Argonne, IL 60439, USA.

d) Departments of Physiological Sciences and of Biochemistry and Molecular Biology and
Center for Environmental and Human Toxicology, University of Florida, University of
Florida, Gainesville, FL 32610, USA.

File: tic_front.csv
D:\GAILLARD\WALLACE_SAMUEL\BASELINE1.D  3 Sep 21  12:32 pm
Start of data points
0.09615,142325
0.516783,131126
0.9374,145724
1.35803,3204584
1.77865,32102
2.19928,31989
2.6199,32380
3.04053,32695
3.46117,34679
3.88178,32056
4.30242,34239
4.72303,31322
5.14367,31167
5.56428,33034
5.98492,31200
6.40553,39305
6.82617,31154
7.24678,31810
7.66742,30800
8.08805,30547
8.50867,33517
8.9293,30923
9.34992,2488213
9.77055,31561
10.1912,30691
10.6118,30996
11.0324,31115
11.4531,33183
11.8737,30580
12.2943,32654
12.7149,30805
13.1356,30918
13.5562,32078
13.9768,30740
14.3974,50479
14.8181,30289
15.2387,30046
15.6593,30782
16.0799,30478
16.5006,32106
16.9212,30598
17.3418,2114505
17.7624,30639
18.1831,29948
18.6037,30965
19.0243,29780
19.4449,33289
19.8656,29975
20.2862,30423
20.7068,30844
21.1275,30001
21.5481,32295
21.9687,30273
22.3893,83435
22.81,30107
23.2306,30080
23.6512,30456
24.0718,29344
24.4925,32067
24.9131,29508
25.3337,1088709
25.7543,29294
26.175,29059
26.5956,30555
27.0162,29947
27.4368,32059
27.8575,29245
28.2781,29460
28.6987,29843
29.1193,28868
29.54,31428
29.9606,29239
30.3812,211845
30.8018,30116
31.2225,29604
31.6431,29459
32.0637,28400
32.4843,31648
32.905,29444
33.3256,233065
33.7462,30419
34.1668,29691
34.5875,30427
35.0081,29568
35.4287,32616
35.8494,30449
36.27,29148
36.6906,29696
37.1112,29627
37.5318,31327
37.9525,29003
38.3731,667147
38.7937,29436
39.2144,29147
39.635,29889
40.0556,29339
40.4762,32107
40.8969,29058
41.3175,44822
41.7381,29035
42.1587,29033
42.5794,31007
43,29023
43.4206,34302
43.8412,29346
44.2619,29020
44.6825,30040
45.1031,29522
45.5237,31916
45.9444,30274
46.365,1587282
46.7856,29547
47.2063,29936
47.6269,30161
48.0475,29988
48.4681,31423
48.8888,29239
49.3094,30912
49.73,29456
50.1506,29817
50.5712,30752
50.9919,29676
51.4125,36195
51.8331,29302
52.2538,29434
52.6744,29269
53.095,29698
53.5156,30775
53.9363,29373
54.3569,2642144
54.7775,29144
55.1981,29717
55.6188,29592
56.0394,29887
56.46,32361
56.8806,29791
57.3013,31931
57.7219,28861
58.1425,28825
58.5631,31704
58.9838,29183
59.4044,41840
59.825,29559
60.2457,29375
60.6663,29412
61.0869,29014
61.5075,32592
61.9282,29147
62.3488,3047721
62.7694,29242
63.19,29132
63.6107,29159
64.0313,29884
64.4519,32162
64.8725,29528
65.2931,30626
65.7138,29381
66.1344,28883
66.555,31637
66.9757,29762
67.3963,64511
67.8169,29296
68.2375,29286
68.6582,29498
69.0788,29933
69.4994,31323
69.92,30207
70.3407,2641049
70.7613,29504
71.1819,28219
71.6025,29514
72.0232,29082
72.4438,31502
72.8644,28811
73.285,29082
73.7057,28647
74.1263,28676
74.5469,30833
74.9676,28322
75.3882,156892
75.8088,28546
76.2294,28391
76.6501,28829
77.0707,28293
77.4913,30783
77.9119,28906
78.3325,1068045
78.7532,28111
79.1738,27977
79.5944,29085
80.0151,29127
80.4357,31923
80.8563,29043
81.2769,29080
81.6976,29388
82.1182,28632
82.5388,30948
82.9594,28603
83.3801,456031
83.8007,28561
84.2213,28108
84.6419,28984
85.0626,28632
85.4832,30483
85.9038,28200
86.3244,167632
86.7451,28813
87.1657,28086
87.5863,29345
88.007,28101
88.4276,32562
88.8482,28979
89.2688,28498
89.6895,29726
90.1101,29177
90.5307,30415
90.9513,28709
91.3719,1413618
91.7926,27866
92.2132,28749
92.6338,29605
93.0545,28953
93.4751,31020
93.8957,28015
94.3163,37763
94.737,28761
95.1576,29079
95.5782,29253
95.9988,28651
96.4195,33675
96.8401,28513
97.2607,28314
97.6813,28217
98.102,28772
98.5226,31029
98.9432,28514
99.3638,2858945
99.7845,28633
100.205,27787
100.626,28429
101.046,27355
101.467,31517
101.888,27712
102.308,28566
102.729,28974
103.149,27862
103.57,28919
103.991,28250
104.411,28728
104.832,28250
105.253,28973
105.673,28432
106.094,28444
106.514,28273
106.935,28726
107.356,28374
107.776,28812
108.197,28900
108.618,28864
109.038,29506
109.459,28769
109.879,29173
110.3,28497
110.721,28785
111.141,29530
111.562,28991
111.983,28668
112.403,29110
112.824,28136
113.245,30318
113.665,29298
114.086,29480
114.506,29210
114.927,29411
115.348,29784
115.768,29562
116.189,29880
116.61,29689
117.03,29773
117.451,30069
117.871,29589
118.292,30489
118.713,28962
119.133,29252
119.554,30172
119.975,29786
120.395,30423
120.816,30366
121.236,29527
121.657,31334
122.078,30477
122.498,30810
122.919,30556
123.34,29993
123.76,30959
124.181,31027
124.601,30893
124.987,30423