Folder: Al-DWTR-Characterization-data/TGA-MS/DWTROR.D

Note: README.md
# Al-DWTR-Characterization

The Diversity of Aluminum-Based DrinkingWater Treatment Residuals for Use in Environmental Remediation 

Wallace et al. (2023) 

# Citation for the use of these data

Samuel M. Wallace(a), Yuchi Zhang(a), Lang Zhou(b), Qing Ma(c), William E. Guise(c), Nancy D. Denslow(d), Jean-Claude Bonzongo(b), and Jean-Fran√ßois Gaillard(a)(2023) *Environmental Science: Water Research & Technology* - in revision - 

a) Department of Civil and Environmental Engineering, Northwestern University, 2145
Sheridan Road, Evanston, IL 60208, USA. E-mail: jf-gaillard@northwestern.edu

b) Engineering School of Sustainable Infrastructure and Environment, Department of
Environmental Engineering Sciences, University of Florida, PO Box 116450, Gainesville,
FL 32611, USA.

c) DND-CAT Synchrotron Research Center, Northwestern University, 9700 South Cass
Avenue, Argonne, IL 60439, USA.

d) Departments of Physiological Sciences and of Biochemistry and Molecular Biology and
Center for Environmental and Human Toxicology, University of Florida, University of
Florida, Gainesville, FL 32610, USA.

File: CHROMTAB.CSV
"Path","File","Date Acquired","Sample","Misc"
"C:\Users\Admin\OneDrive - Northwestern University\DWTR-SERDP PROJECT'S DOCUMENTS-selected\Data and Analysis\Raw Data\TGA-MS\2021\","DWTROR.D","13 Sep 2021  12:27    "," "," "
"TIC: DWTROR.D\data.ms"
0.096,100457.000
0.517,92966.000
0.937,97160.000
1.358,2791925.000
1.778,21222.000
2.199,21702.000
2.620,21779.000
3.040,20918.000
3.461,22875.000
3.882,21213.000
4.302,22516.000
4.723,20627.000
5.143,21022.000
5.564,21978.000
5.985,20908.000
6.405,27466.000
6.826,21086.000
7.247,21118.000
7.667,21232.000
8.088,20561.000
8.508,22945.000
8.929,21582.000
9.350,1956876.000
9.770,21187.000
10.191,21100.000
10.612,21817.000
11.032,21262.000
11.453,24835.000
11.873,21864.000
12.294,22216.000
12.715,22269.000
13.135,21571.000
13.556,23543.000
13.977,21726.000
14.397,41170.000
14.818,21721.000
15.239,22005.000
15.659,22119.000
16.080,22560.000
16.500,23797.000
16.921,21151.000
17.342,1609125.000
17.762,21487.000
18.183,21761.000
18.604,22948.000
19.024,22116.000
19.445,25521.000
19.865,22587.000
20.286,22232.000
20.707,22649.000
21.127,22655.000
21.548,23788.000
21.969,21741.000
22.389,67413.000
22.810,22030.000
23.230,22248.000
23.651,22908.000
24.072,22544.000
24.492,24150.000
24.913,22458.000
25.334,764454.000
25.754,22095.000
26.175,22560.000
26.595,22658.000
27.016,22403.000
27.437,24890.000
27.857,22198.000
28.278,22762.000
28.699,22638.000
29.119,23051.000
29.540,24393.000
29.960,22366.000
30.381,168560.000
30.802,23077.000
31.222,22511.000
31.643,22189.000
32.064,22890.000
32.484,25060.000
32.905,23107.000
33.325,171478.000
33.746,23702.000
34.167,22578.000
34.587,23618.000
35.008,22844.000
35.429,26171.000
35.849,22313.000
36.270,22537.000
36.690,23035.000
37.111,22495.000
37.532,24755.000
37.952,23208.000
38.373,521789.000
38.794,23097.000
39.214,23065.000
39.635,23466.000
40.055,22431.000
40.476,26089.000
40.897,23573.000
41.317,33021.000
41.738,22799.000
42.159,23124.000
42.579,24879.000
43.000,22904.000
43.420,30630.000
43.841,23536.000
44.262,22802.000
44.682,23673.000
45.103,23149.000
45.524,25104.000
45.944,23401.000
46.365,1292446.000
46.785,23811.000
47.206,23207.000
47.627,23494.000
48.047,22843.000
48.468,26123.000
48.889,23646.000
49.309,24049.000
49.730,23525.000
50.150,23264.000
50.571,25769.000
50.992,22905.000
51.412,32461.000
51.833,22969.000
52.254,23546.000
52.674,23475.000
53.095,23437.000
53.515,24977.000
53.936,23958.000
54.357,2162859.000
54.777,23801.000
55.198,23928.000
55.619,23822.000
56.039,24303.000
56.460,26049.000
56.880,24203.000
57.301,24910.000
57.722,23671.000
58.142,23719.000
58.563,25590.000
58.984,24727.000
59.404,35423.000
59.825,24196.000
60.245,23854.000
60.666,24271.000
61.087,23818.000
61.507,25230.000
61.928,23909.000
62.349,2477588.000
62.769,23787.000
63.190,24180.000
63.610,24831.000
64.031,23562.000
64.452,26662.000
64.872,24338.000
65.293,24881.000
65.714,24080.000
66.134,24013.000
66.555,25195.000
66.975,24902.000
67.396,51810.000
67.817,23939.000
68.237,24586.000
68.658,24092.000
69.079,24329.000
69.499,25599.000
69.920,24066.000
70.340,1950523.000
70.761,24108.000
71.182,24433.000
71.602,23912.000
72.023,24123.000
72.444,26332.000
72.864,24177.000
73.285,23118.000
73.705,24157.000
74.126,23927.000
74.547,26062.000
74.967,23930.000
75.388,118208.000
75.809,24531.000
76.229,23409.000
76.650,24079.000
77.070,24342.000
77.491,25985.000
77.912,23681.000
78.332,785877.000
78.753,24417.000
79.174,23903.000
79.594,23962.000
80.015,24054.000
80.436,26963.000
80.856,24116.000
81.277,24047.000
81.697,24494.000
82.118,23933.000
82.539,25851.000
82.959,24153.000
83.380,371068.000
83.801,23721.000
84.221,24879.000
84.642,23874.000
85.062,23965.000
85.483,25217.000
85.904,24316.000
86.324,145429.000
86.745,24616.000
87.166,23667.000
87.586,24837.000
88.007,22829.000
88.427,27377.000
88.848,23368.000
89.269,23975.000
89.689,23690.000
90.110,23699.000
90.531,25258.000
90.951,24099.000
91.372,1154869.000
91.792,24111.000
92.213,24419.000
92.634,23982.000
93.054,23735.000
93.475,26247.000
93.896,23780.000
94.316,31409.000
94.737,23682.000
95.157,23387.000
95.578,24755.000
95.999,23372.000
96.419,28113.000
96.840,24210.000
97.261,23699.000
97.681,23471.000
98.102,23989.000
98.522,25082.000
98.943,24138.000
99.364,2314973.000
99.784,23910.000
100.205,23863.000
100.626,23397.000
101.046,23408.000
101.467,26083.000
101.887,22913.000
102.308,23830.000
102.729,24316.000
103.149,24577.000
103.570,24545.000
103.991,23066.000
104.411,23880.000
104.832,23936.000
105.252,24425.000
105.673,24488.000
106.094,24441.000
106.514,24452.000
106.935,24493.000
107.356,24862.000
107.776,24369.000
108.197,24908.000
108.617,23935.000
109.038,24472.000
109.459,24682.000
109.879,25451.000
110.300,24076.000
110.721,25287.000
111.141,24680.000
111.562,24461.000
111.982,25628.000
112.403,25418.000
112.824,24724.000
113.244,24843.000
113.665,25535.000
114.086,25341.000
114.506,24725.000
114.927,25065.000
115.347,24547.000
115.768,24855.000
116.189,25366.000
116.609,25744.000
117.030,25201.000
117.451,25448.000
117.871,25268.000
118.292,25762.000
118.712,25524.000
119.133,25652.000
119.554,26006.000
119.974,26201.000
120.395,26628.000
120.816,24846.000
121.236,25664.000
121.657,26091.000
122.077,25548.000
122.498,25804.000
122.919,26028.000
123.339,25815.000
123.760,25813.000
124.181,26044.000
124.601,26559.000
124.996,26096.000

File: tic_front.csv
D:\GAILLARD\WALLACE_SAMUEL\DWTROR.D 13 Sep 21  12:27 pm
Start of data points
0.0959667,100457
0.516583,92966
0.937217,97160
1.35785,2791925
1.77847,21222
2.1991,21702
2.61972,21779
3.04035,20918
3.46097,22875
3.8816,21213
4.30222,22516
4.72285,20627
5.14347,21022
5.5641,21978
5.98473,20908
6.40535,27466
6.82598,21086
7.2466,21118
7.66723,21232
8.08785,20561
8.50848,22945
8.9291,21582
9.34973,1956876
9.77035,21187
10.191,21100
10.6116,21817
11.0322,21262
11.4529,24835
11.8735,21864
12.2941,22216
12.7147,22269
13.1354,21571
13.556,23543
13.9766,21726
14.3973,41170
14.8179,21721
15.2385,22005
15.6591,22119
16.0798,22560
16.5004,23797
16.921,21151
17.3416,1609125
17.7623,21487
18.1829,21761
18.6035,22948
19.0241,22116
19.4448,25521
19.8654,22587
20.286,22232
20.7066,22649
21.1273,22655
21.5479,23788
21.9685,21741
22.3891,67413
22.8098,22030
23.2304,22248
23.651,22908
24.0716,22544
24.4923,24150
24.9129,22458
25.3335,764454
25.7541,22095
26.1748,22560
26.5954,22658
27.016,22403
27.4367,24890
27.8573,22198
28.2779,22762
28.6985,22638
29.1192,23051
29.5398,24393
29.9604,22366
30.381,168560
30.8017,23077
31.2223,22511
31.6429,22189
32.0635,22890
32.4842,25060
32.9048,23107
33.3254,171478
33.746,23702
34.1666,22578
34.5873,23618
35.0079,22844
35.4285,26171
35.8492,22313
36.2698,22537
36.6904,23035
37.111,22495
37.5317,24755
37.9523,23208
38.3729,521789
38.7935,23097
39.2142,23065
39.6348,23466
40.0554,22431
40.4761,26089
40.8967,23573
41.3173,33021
41.7379,22799
42.1586,23124
42.5792,24879
42.9998,22904
43.4204,30630
43.8411,23536
44.2617,22802
44.6823,23673
45.1029,23149
45.5236,25104
45.9442,23401
46.3648,1292446
46.7854,23811
47.2061,23207
47.6267,23494
48.0473,22843
48.4679,26123
48.8886,23646
49.3092,24049
49.7298,23525
50.1504,23264
50.5711,25769
50.9917,22905
51.4123,32461
51.8329,22969
52.2536,23546
52.6742,23475
53.0948,23437
53.5155,24977
53.9361,23958
54.3567,2162859
54.7773,23801
55.198,23928
55.6186,23822
56.0392,24303
56.4598,26049
56.8805,24203
57.3011,24910
57.7217,23671
58.1423,23719
58.563,25590
58.9836,24727
59.4042,35423
59.8248,24196
60.2455,23854
60.6661,24271
61.0867,23818
61.5073,25230
61.928,23909
62.3486,2477588
62.7692,23787
63.1898,24180
63.6105,24831
64.0311,23562
64.4517,26662
64.8723,24338
65.293,24881
65.7136,24080
66.1342,24013
66.5549,25195
66.9755,24902
67.3961,51810
67.8167,23939
68.2374,24586
68.658,24092
69.0786,24329
69.4992,25599
69.9198,24066
70.3405,1950523
70.7611,24108
71.1817,24433
71.6024,23912
72.023,24123
72.4436,26332
72.8642,24177
73.2849,23118
73.7055,24157
74.1261,23927
74.5467,26062
74.9674,23930
75.388,118208
75.8086,24531
76.2292,23409
76.6499,24079
77.0705,24342
77.4911,25985
77.9117,23681
78.3324,785877
78.753,24417
79.1736,23903
79.5943,23962
80.0149,24054
80.4355,26963
80.8561,24116
81.2768,24047
81.6974,24494
82.118,23933
82.5386,25851
82.9592,24153
83.3799,371068
83.8005,23721
84.2211,24879
84.6418,23874
85.0624,23965
85.483,25217
85.9036,24316
86.3243,145429
86.7449,24616
87.1655,23667
87.5861,24837
88.0068,22829
88.4274,27377
88.848,23368
89.2686,23975
89.6893,23690
90.1099,23699
90.5305,25258
90.9511,24099
91.3718,1154869
91.7924,24111
92.213,24419
92.6337,23982
93.0543,23735
93.4749,26247
93.8955,23780
94.3162,31409
94.7368,23682
95.1574,23387
95.578,24755
95.9986,23372
96.4193,28113
96.8399,24210
97.2605,23699
97.6812,23471
98.1018,23989
98.5224,25082
98.943,24138
99.3637,2314973
99.7843,23910
100.205,23863
100.626,23397
101.046,23408
101.467,26083
101.887,22913
102.308,23830
102.729,24316
103.149,24577
103.57,24545
103.991,23066
104.411,23880
104.832,23936
105.252,24425
105.673,24488
106.094,24441
106.514,24452
106.935,24493
107.356,24862
107.776,24369
108.197,24908
108.617,23935
109.038,24472
109.459,24682
109.879,25451
110.3,24076
110.721,25287
111.141,24680
111.562,24461
111.982,25628
112.403,25418
112.824,24724
113.244,24843
113.665,25535
114.086,25341
114.506,24725
114.927,25065
115.347,24547
115.768,24855
116.189,25366
116.609,25744
117.03,25201
117.451,25448
117.871,25268
118.292,25762
118.712,25524
119.133,25652
119.554,26006
119.974,26201
120.395,26628
120.816,24846
121.236,25664
121.657,26091
122.077,25548
122.498,25804
122.919,26028
123.339,25815
123.76,25813
124.181,26044
124.601,26559
124.996,26096