Folder: Al-DWTR-Characterization-data/TGA-MS/DWTRTN.D

Note: README.md
# Al-DWTR-Characterization

The Diversity of Aluminum-Based DrinkingWater Treatment Residuals for Use in Environmental Remediation 

Wallace et al. (2023) 

# Citation for the use of these data

Samuel M. Wallace(a), Yuchi Zhang(a), Lang Zhou(b), Qing Ma(c), William E. Guise(c), Nancy D. Denslow(d), Jean-Claude Bonzongo(b), and Jean-Fran√ßois Gaillard(a)(2023) *Environmental Science: Water Research & Technology* - in revision - 

a) Department of Civil and Environmental Engineering, Northwestern University, 2145
Sheridan Road, Evanston, IL 60208, USA. E-mail: jf-gaillard@northwestern.edu

b) Engineering School of Sustainable Infrastructure and Environment, Department of
Environmental Engineering Sciences, University of Florida, PO Box 116450, Gainesville,
FL 32611, USA.

c) DND-CAT Synchrotron Research Center, Northwestern University, 9700 South Cass
Avenue, Argonne, IL 60439, USA.

d) Departments of Physiological Sciences and of Biochemistry and Molecular Biology and
Center for Environmental and Human Toxicology, University of Florida, University of
Florida, Gainesville, FL 32610, USA.

File: CHROMTAB.CSV
"Path","File","Date Acquired","Sample","Misc"
"C:\Users\Admin\OneDrive - Northwestern University\DWTR-SERDP PROJECT'S DOCUMENTS-selected\Data and Analysis\Raw Data\TGA-MS\2021\","DWTRTN.D"," 7 Sep 2021  15:50    "," "," "
"TIC: DWTRTN.D\data.ms"
0.096,161598.000
0.517,141636.000
0.937,148678.000
1.358,3570053.000
1.779,32799.000
2.199,32408.000
2.620,33028.000
3.040,32777.000
3.461,35355.000
3.882,32065.000
4.302,33994.000
4.723,32054.000
5.144,32901.000
5.564,34135.000
5.985,31863.000
6.405,40619.000
6.826,32290.000
7.247,32174.000
7.667,31567.000
8.088,31916.000
8.509,33921.000
8.929,32364.000
9.350,2860879.000
9.771,32033.000
10.191,32530.000
10.612,31453.000
11.032,32217.000
11.453,34699.000
11.874,31803.000
12.294,33311.000
12.715,32093.000
13.136,32384.000
13.556,33783.000
13.977,31401.000
14.397,50689.000
14.818,31435.000
15.239,32444.000
15.659,32299.000
16.080,31966.000
16.501,34226.000
16.921,31736.000
17.342,2350123.000
17.762,31638.000
18.183,31868.000
18.604,32528.000
19.024,32457.000
19.445,35296.000
19.866,31988.000
20.286,33359.000
20.707,31043.000
21.127,32045.000
21.548,33525.000
21.969,32058.000
22.389,88486.000
22.810,31743.000
23.231,31975.000
23.651,31794.000
24.072,31747.000
24.492,34277.000
24.913,31877.000
25.334,1068741.000
25.754,32036.000
26.175,31606.000
26.596,32688.000
27.016,31726.000
27.437,34909.000
27.857,32260.000
28.278,31930.000
28.699,32045.000
29.119,31635.000
29.540,34295.000
29.961,31078.000
30.381,225906.000
30.802,31757.000
31.222,32361.000
31.643,31660.000
32.064,31776.000
32.484,33878.000
32.905,32937.000
33.326,234195.000
33.746,32165.000
34.167,32391.000
34.587,33128.000
35.008,31959.000
35.429,35378.000
35.849,32487.000
36.270,31275.000
36.691,32483.000
37.111,31273.000
37.532,34286.000
37.952,31407.000
38.373,705330.000
38.794,31947.000
39.214,30333.000
39.635,31623.000
40.056,31605.000
40.476,34495.000
40.897,29866.000
41.317,46407.000
41.738,31532.000
42.159,31362.000
42.579,32981.000
43.000,31038.000
43.421,35174.000
43.841,32104.000
44.262,31269.000
44.682,32297.000
45.103,31539.000
45.524,34129.000
45.944,31282.000
46.365,1743960.000
46.786,31958.000
47.206,30703.000
47.627,31917.000
48.047,32565.000
48.468,34250.000
48.889,31349.000
49.309,33117.000
49.730,31210.000
50.151,31636.000
50.571,32907.000
50.992,31671.000
51.412,38657.000
51.833,31235.000
52.254,31780.000
52.674,31045.000
53.095,30515.000
53.516,33814.000
53.936,31494.000
54.357,2891561.000
54.777,31918.000
55.198,31450.000
55.619,32207.000
56.039,32564.000
56.460,34266.000
56.881,31486.000
57.301,33760.000
57.722,31442.000
58.142,31195.000
58.563,34030.000
58.984,31389.000
59.404,43893.000
59.825,31107.000
60.246,31099.000
60.666,31068.000
61.087,31355.000
61.507,33844.000
61.928,30887.000
62.349,3321303.000
62.769,31151.000
63.190,31239.000
63.611,31406.000
64.031,31126.000
64.452,33786.000
64.872,31267.000
65.293,32176.000
65.714,30373.000
66.134,31471.000
66.555,32710.000
66.976,31452.000
67.396,70876.000
67.817,31174.000
68.237,31048.000
68.658,31077.000
69.079,30204.000
69.499,34176.000
69.920,31356.000
70.341,2956787.000
70.761,30898.000
71.182,31652.000
71.602,32144.000
72.023,30461.000
72.444,33703.000
72.864,30428.000
73.285,29837.000
73.706,31049.000
74.126,30784.000
74.547,33079.000
74.968,31705.000
75.388,220627.000
75.809,31204.000
76.229,29865.000
76.650,31017.000
77.071,30689.000
77.491,32403.000
77.912,30634.000
78.333,1396481.000
78.753,30792.000
79.174,30602.000
79.594,30901.000
80.015,31564.000
80.436,33523.000
80.856,30396.000
81.277,30081.000
81.698,30342.000
82.118,30166.000
82.539,32035.000
82.959,30211.000
83.380,503587.000
83.801,29942.000
84.221,31037.000
84.642,31137.000
85.063,30939.000
85.483,33568.000
85.904,30980.000
86.324,166240.000
86.745,29915.000
87.166,30596.000
87.586,32485.000
88.007,29249.000
88.428,33784.000
88.848,30883.000
89.269,29903.000
89.689,29990.000
90.110,30722.000
90.531,31892.000
90.951,30001.000
91.372,1528981.000
91.793,30947.000
92.213,30033.000
92.634,30445.000
93.054,30321.000
93.475,32834.000
93.896,30421.000
94.316,37520.000
94.737,30284.000
95.158,29495.000
95.578,31922.000
95.999,29760.000
96.419,35833.000
96.840,30860.000
97.261,29687.000
97.681,29589.000
98.102,29536.000
98.523,32012.000
98.943,30068.000
99.364,3066634.000
99.784,29234.000
100.205,30096.000
100.626,29583.000
101.046,30070.000
101.467,31518.000
101.888,29954.000
102.308,30449.000
102.729,29241.000
103.149,30162.000
103.570,29871.000
103.991,30320.000
104.411,29352.000
104.832,29474.000
105.253,30531.000
105.673,29383.000
106.094,29593.000
106.514,30301.000
106.935,30298.000
107.356,29491.000
107.776,29390.000
108.197,30034.000
108.618,30196.000
109.038,29833.000
109.459,29934.000
109.879,30634.000
110.300,29980.000
110.721,30957.000
111.141,29819.000
111.562,29865.000
111.983,30381.000
112.403,30132.000
112.824,29750.000
113.244,31377.000
113.665,29938.000
114.086,31514.000
114.506,30957.000
114.927,30498.000
115.348,31158.000
115.768,30024.000
116.189,30845.000
116.609,30448.000
117.030,30657.000
117.451,31467.000
117.871,30537.000
118.292,31283.000
118.713,30564.000
119.133,29994.000
119.554,31312.000
119.974,32263.000
120.395,31029.000
120.816,31038.000
121.236,31915.000
121.657,31950.000
122.078,31512.000
122.498,31711.000
122.919,31373.000
123.339,31644.000
123.760,32079.000
124.181,31929.000
124.601,31941.000
124.987,32650.000

File: tic_front.csv
D:\GAILLARD\WALLACE_SAMUEL\DWTRTN.D  7 Sep 21   3:50 pm
Start of data points
0.0961,161598
0.516733,141636
0.93735,148678
1.35798,3570053
1.7786,32799
2.19923,32408
2.61985,33028
3.04048,32777
3.46112,35355
3.88173,32065
4.30237,33994
4.72298,32054
5.14362,32901
5.56423,34135
5.98487,31863
6.40548,40619
6.82612,32290
7.24673,32174
7.66737,31567
8.088,31916
8.50862,33921
8.92925,32364
9.34987,2860879
9.7705,32033
10.1911,32530
10.6118,31453
11.0324,32217
11.453,34699
11.8736,31803
12.2943,33311
12.7149,32093
13.1355,32384
13.5561,33783
13.9768,31401
14.3974,50689
14.818,31435
15.2386,32444
15.6593,32299
16.0799,31966
16.5005,34226
16.9211,31736
17.3418,2350123
17.7624,31638
18.183,31868
18.6036,32528
19.0243,32457
19.4449,35296
19.8655,31988
20.2861,33359
20.7068,31043
21.1274,32045
21.548,33525
21.9687,32058
22.3893,88486
22.8099,31743
23.2305,31975
23.6512,31794
24.0718,31747
24.4924,34277
24.913,31877
25.3337,1068741
25.7543,32036
26.1749,31606
26.5955,32688
27.0162,31726
27.4368,34909
27.8574,32260
28.278,31930
28.6987,32045
29.1193,31635
29.5399,34295
29.9605,31078
30.3812,225906
30.8018,31757
31.2224,32361
31.643,31660
32.0637,31776
32.4843,33878
32.9049,32937
33.3255,234195
33.7462,32165
34.1668,32391
34.5874,33128
35.0081,31959
35.4287,35378
35.8493,32487
36.2699,31275
36.6906,32483
37.1112,31273
37.5318,34286
37.9524,31407
38.373,705330
38.7937,31947
39.2143,30333
39.6349,31623
40.0556,31605
40.4762,34495
40.8968,29866
41.3174,46407
41.7381,31532
42.1587,31362
42.5793,32981
42.9999,31038
43.4206,35174
43.8412,32104
44.2618,31269
44.6824,32297
45.1031,31539
45.5237,34129
45.9443,31282
46.3649,1743960
46.7856,31958
47.2062,30703
47.6268,31917
48.0475,32565
48.4681,34250
48.8887,31349
49.3093,33117
49.73,31210
50.1506,31636
50.5712,32907
50.9918,31671
51.4125,38657
51.8331,31235
52.2537,31780
52.6743,31045
53.095,30515
53.5156,33814
53.9362,31494
54.3568,2891561
54.7775,31918
55.1981,31450
55.6187,32207
56.0393,32564
56.46,34266
56.8806,31486
57.3012,33760
57.7218,31442
58.1425,31195
58.5631,34030
58.9837,31389
59.4043,43893
59.825,31107
60.2456,31099
60.6662,31068
61.0869,31355
61.5075,33844
61.9281,30887
62.3487,3321303
62.7694,31151
63.19,31239
63.6106,31406
64.0312,31126
64.4518,33786
64.8725,31267
65.2931,32176
65.7137,30373
66.1343,31471
66.555,32710
66.9756,31452
67.3962,70876
67.8169,31174
68.2375,31048
68.6581,31077
69.0787,30204
69.4994,34176
69.92,31356
70.3406,2956787
70.7612,30898
71.1819,31652
71.6025,32144
72.0231,30461
72.4437,33703
72.8644,30428
73.285,29837
73.7056,31049
74.1262,30784
74.5469,33079
74.9675,31705
75.3881,220627
75.8088,31204
76.2294,29865
76.65,31017
77.0706,30689
77.4913,32403
77.9119,30634
78.3325,1396481
78.7531,30792
79.1737,30602
79.5944,30901
80.015,31564
80.4356,33523
80.8563,30396
81.2769,30081
81.6975,30342
82.1181,30166
82.5388,32035
82.9594,30211
83.38,503587
83.8006,29942
84.2213,31037
84.6419,31137
85.0625,30939
85.4831,33568
85.9038,30980
86.3244,166240
86.745,29915
87.1656,30596
87.5863,32485
88.0069,29249
88.4275,33784
88.8482,30883
89.2688,29903
89.6894,29990
90.11,30722
90.5307,31892
90.9513,30001
91.3719,1528981
91.7925,30947
92.2131,30033
92.6338,30445
93.0544,30321
93.475,32834
93.8957,30421
94.3163,37520
94.7369,30284
95.1575,29495
95.5782,31922
95.9988,29760
96.4194,35833
96.84,30860
97.2607,29687
97.6813,29589
98.1019,29536
98.5225,32012
98.9432,30068
99.3638,3066634
99.7844,29234
100.205,30096
100.626,29583
101.046,30070
101.467,31518
101.888,29954
102.308,30449
102.729,29241
103.149,30162
103.57,29871
103.991,30320
104.411,29352
104.832,29474
105.253,30531
105.673,29383
106.094,29593
106.514,30301
106.935,30298
107.356,29491
107.776,29390
108.197,30034
108.618,30196
109.038,29833
109.459,29934
109.879,30634
110.3,29980
110.721,30957
111.141,29819
111.562,29865
111.983,30381
112.403,30132
112.824,29750
113.244,31377
113.665,29938
114.086,31514
114.506,30957
114.927,30498
115.348,31158
115.768,30024
116.189,30845
116.609,30448
117.03,30657
117.451,31467
117.871,30537
118.292,31283
118.713,30564
119.133,29994
119.554,31312
119.974,32263
120.395,31029
120.816,31038
121.236,31915
121.657,31950
122.078,31512
122.498,31711
122.919,31373
123.339,31644
123.76,32079
124.181,31929
124.601,31941
124.987,32650