Folder: Al-DWTR-Characterization-data/TGA-MS/DWTRMN.D

Note: README.md
# Al-DWTR-Characterization

The Diversity of Aluminum-Based DrinkingWater Treatment Residuals for Use in Environmental Remediation 

Wallace et al. (2023) 

# Citation for the use of these data

Samuel M. Wallace(a), Yuchi Zhang(a), Lang Zhou(b), Qing Ma(c), William E. Guise(c), Nancy D. Denslow(d), Jean-Claude Bonzongo(b), and Jean-Fran√ßois Gaillard(a)(2023) *Environmental Science: Water Research & Technology* - in revision - 

a) Department of Civil and Environmental Engineering, Northwestern University, 2145
Sheridan Road, Evanston, IL 60208, USA. E-mail: jf-gaillard@northwestern.edu

b) Engineering School of Sustainable Infrastructure and Environment, Department of
Environmental Engineering Sciences, University of Florida, PO Box 116450, Gainesville,
FL 32611, USA.

c) DND-CAT Synchrotron Research Center, Northwestern University, 9700 South Cass
Avenue, Argonne, IL 60439, USA.

d) Departments of Physiological Sciences and of Biochemistry and Molecular Biology and
Center for Environmental and Human Toxicology, University of Florida, University of
Florida, Gainesville, FL 32610, USA.

File: CHROMTAB2.CSV
"Path","File","Date Acquired","Sample","Misc"
"C:\Users\Admin\Box\DWTR-SERDP PROJECT'S DOCUMENTS\Data and Analysis\Raw Data\TGA-MS\2021\","DWTRMN.D","22 Sep 2021  10:04    "," "," "
"Ion  18.00 (17.70 to 18.70): DWTRMN.D\data.ms"
0.096,5420.000
0.517,5632.000
0.937,6075.000
1.358,15178.000
1.779,4018.000
2.199,3814.000
2.620,4133.000
3.040,3819.000
3.461,4722.000
3.882,3857.000
4.302,3976.000
4.723,3664.000
5.144,3528.000
5.564,4241.000
5.985,3682.000
6.405,5938.000
6.826,3589.000
7.247,3479.000
7.667,3665.000
8.088,3529.000
8.509,3990.000
8.929,3586.000
9.350,21560.000
9.770,3640.000
10.191,3524.000
10.612,3780.000
11.032,3550.000
11.453,4559.000
11.874,3805.000
12.294,3576.000
12.715,3967.000
13.135,3681.000
13.556,3909.000
13.977,3484.000
14.397,7614.000
14.818,3639.000
15.239,3617.000
15.659,3568.000
16.080,3384.000
16.500,4182.000
16.921,3677.000
17.342,17280.000
17.762,3571.000
18.183,3829.000
18.604,3931.000
19.024,3555.000
19.445,4786.000
19.865,3706.000
20.286,3676.000
20.707,3861.000
21.127,3701.000
21.548,4074.000
21.969,3595.000
22.389,8654.000
22.810,3811.000
23.230,3562.000
23.651,3981.000
24.072,3566.000
24.492,4145.000
24.913,3628.000
25.334,6984.000
25.754,3503.000
26.175,3599.000
26.595,4006.000
27.016,3808.000
27.437,4487.000
27.857,3422.000
28.278,3777.000
28.699,3907.000
29.119,3750.000
29.540,4125.000
29.960,3739.000
30.381,13639.000
30.802,3661.000
31.222,3601.000
31.643,3839.000
32.064,3811.000
32.484,4388.000
32.905,3710.000
33.325,4304.000
33.746,3971.000
34.167,3558.000
34.587,3974.000
35.008,3592.000
35.429,5222.000
35.849,3579.000
36.270,3669.000
36.690,3612.000
37.111,3770.000
37.532,4216.000
37.952,3670.000
38.373,26840.000
38.794,3789.000
39.214,3661.000
39.635,3878.000
40.055,3612.000
40.476,4381.000
40.897,3811.000
41.317,3789.000
41.738,3687.000
42.159,3696.000
42.579,3947.000
43.000,3553.000
43.420,5408.000
43.841,3694.000
44.262,3378.000
44.682,3842.000
45.103,3776.000
45.524,4126.000
45.944,3812.000
46.365,24176.000
46.785,3502.000
47.206,3639.000
47.627,3555.000
48.047,3523.000
48.468,4580.000
48.889,3724.000
49.309,3508.000
49.730,3629.000
50.150,3613.000
50.571,3877.000
50.992,3526.000
51.412,5158.000
51.833,3815.000
52.254,3447.000
52.674,3754.000
53.095,3413.000
53.515,4057.000
53.936,4043.000
54.357,18840.000
54.777,3672.000
55.198,3419.000
55.619,3661.000
56.039,3503.000
56.460,4227.000
56.881,3492.000
57.301,3695.000
57.722,3698.000
58.142,3580.000
58.563,3978.000
58.984,3486.000
59.404,5713.000
59.825,3767.000
60.246,3596.000
60.666,3510.000
61.087,3633.000
61.507,4067.000
61.928,3670.000
62.349,11176.000
62.769,3660.000
63.190,3519.000
63.611,3812.000
64.031,3496.000
64.452,4304.000
64.872,3909.000
65.293,3803.000
65.714,3788.000
66.134,3701.000
66.555,3817.000
66.976,3813.000
67.396,6085.000
67.817,3915.000
68.237,3557.000
68.658,3754.000
69.079,3587.000
69.499,4199.000
69.920,3619.000
70.341,6820.000
70.761,3766.000
71.182,3721.000
71.602,3734.000
72.023,3696.000
72.444,4317.000
72.864,3601.000
73.285,3583.000
73.706,3642.000
74.126,3632.000
74.547,4088.000
74.967,3634.000
75.388,7723.000
75.809,3582.000
76.229,3630.000
76.650,3712.000
77.071,3595.000
77.491,4244.000
77.912,3568.000
78.332,4537.000
78.753,3559.000
79.174,3627.000
79.594,3850.000
80.015,3802.000
80.436,4511.000
80.856,3593.000
81.277,3551.000
81.697,3501.000
82.118,3572.000
82.539,3705.000
82.959,3541.000
83.380,10444.000
83.801,3728.000
84.221,3400.000
84.642,3549.000
85.062,3621.000
85.483,4159.000
85.904,3562.000
86.324,3587.000
86.745,3537.000
87.166,3370.000
87.586,3896.000
88.007,3447.000
88.427,4651.000
88.848,3596.000
89.269,3414.000
89.689,3607.000
90.110,3426.000
90.531,3926.000
90.951,3530.000
91.372,15156.000
91.792,3641.000
92.213,3706.000
92.634,3610.000
93.054,3215.000
93.475,3804.000
93.896,3646.000
94.316,3456.000
94.737,3379.000
95.157,3473.000
95.578,3882.000
95.999,3576.000
96.419,4623.000
96.840,3581.000
97.261,3471.000
97.681,3639.000
98.102,3517.000
98.522,3954.000
98.943,3530.000
99.364,15220.000
99.784,3585.000
100.205,3463.000
100.626,3706.000
101.046,3543.000
101.467,4098.000
101.887,3437.000
102.308,3376.000
102.729,3323.000
103.149,3538.000
103.570,3533.000
103.991,3615.000
104.411,3653.000
104.832,3554.000
105.252,3523.000
105.673,3559.000
106.094,3444.000
106.514,3458.000
106.935,3623.000
107.356,3561.000
107.776,3366.000
108.197,3515.000
108.617,3794.000
109.038,3472.000
109.459,3860.000
109.879,3637.000
110.300,3526.000
110.721,3445.000
111.141,3550.000
111.562,3732.000
111.982,3590.000
112.403,3618.000
112.824,3678.000
113.244,3492.000
113.665,3494.000
114.086,3929.000
114.506,3802.000
114.927,3708.000
115.347,3409.000
115.768,3784.000
116.189,3807.000
116.609,3467.000
117.030,3789.000
117.451,3586.000
117.871,3688.000
118.292,3490.000
118.712,3643.000
119.133,3591.000
119.554,3628.000
119.974,3727.000
120.395,3658.000
120.816,3769.000
121.236,3763.000
121.657,3657.000
122.078,3697.000
122.498,3748.000
122.919,3549.000
123.339,3623.000
123.760,3593.000
124.181,3622.000
124.601,3707.000
124.987,3633.000
"Ion  44.00 (43.70 to 44.70): DWTRMN.D\data.ms"
0.096,1828.000
0.517,1751.000
0.937,1867.000
1.358,7600.000
1.779,0.000
2.199,0.000
2.620,0.000
3.040,0.000
3.461,0.000
3.882,0.000
4.302,0.000
4.723,0.000
5.144,0.000
5.564,0.000
5.985,0.000
6.405,0.000
6.826,0.000
7.247,0.000
7.667,0.000
8.088,0.000
8.509,0.000
8.929,0.000
9.350,6970.000
9.770,0.000
10.191,0.000
10.612,0.000
11.032,0.000
11.453,0.000
11.874,0.000
12.294,0.000
12.715,0.000
13.135,0.000
13.556,0.000
13.977,0.000
14.397,0.000
14.818,0.000
15.239,0.000
15.659,0.000
16.080,0.000
16.500,0.000
16.921,0.000
17.342,5950.000
17.762,0.000
18.183,0.000
18.604,0.000
19.024,0.000
19.445,0.000
19.865,0.000
20.286,0.000
20.707,0.000
21.127,0.000
21.548,0.000
21.969,0.000
22.389,505.000
22.810,0.000
23.230,0.000
23.651,0.000
24.072,0.000
24.492,0.000
24.913,0.000
25.334,3400.000
25.754,0.000
26.175,0.000
26.595,0.000
27.016,0.000
27.437,0.000
27.857,0.000
28.278,0.000
28.699,0.000
29.119,0.000
29.540,0.000
29.960,0.000
30.381,2005.000
30.802,0.000
31.222,0.000
31.643,0.000
32.064,0.000
32.484,0.000
32.905,0.000
33.325,1172.000
33.746,0.000
34.167,0.000
34.587,0.000
35.008,0.000
35.429,0.000
35.849,0.000
36.270,0.000
36.690,0.000
37.111,0.000
37.532,0.000
37.952,0.000
38.373,14544.000
38.794,0.000
39.214,0.000
39.635,0.000
40.055,0.000
40.476,0.000
40.897,0.000
41.317,0.000
41.738,0.000
42.159,0.000
42.579,0.000
43.000,0.000
43.420,0.000
43.841,0.000
44.262,0.000
44.682,0.000
45.103,0.000
45.524,0.000
45.944,0.000
46.365,32072.000
46.785,0.000
47.206,0.000
47.627,0.000
48.047,0.000
48.468,0.000
48.889,0.000
49.309,0.000
49.730,0.000
50.150,0.000
50.571,0.000
50.992,0.000
51.412,0.000
51.833,0.000
52.254,0.000
52.674,0.000
53.095,0.000
53.515,0.000
53.936,0.000
54.357,42208.000
54.777,0.000
55.198,0.000
55.619,0.000
56.039,0.000
56.460,0.000
56.881,0.000
57.301,0.000
57.722,0.000
58.142,0.000
58.563,0.000
58.984,0.000
59.404,415.000
59.825,0.000
60.246,0.000
60.666,0.000
61.087,0.000
61.507,0.000
61.928,0.000
62.349,54296.000
62.769,0.000
63.190,0.000
63.611,0.000
64.031,0.000
64.452,0.000
64.872,0.000
65.293,0.000
65.714,0.000
66.134,0.000
66.555,0.000
66.976,0.000
67.396,1401.000
67.817,0.000
68.237,0.000
68.658,0.000
69.079,0.000
69.499,0.000
69.920,0.000
70.341,218048.000
70.761,0.000
71.182,0.000
71.602,0.000
72.023,0.000
72.444,0.000
72.864,0.000
73.285,0.000
73.706,0.000
74.126,0.000
74.547,0.000
74.967,0.000
75.388,31848.000
75.809,0.000
76.229,0.000
76.650,0.000
77.071,0.000
77.491,0.000
77.912,0.000
78.332,245632.000
78.753,0.000
79.174,0.000
79.594,0.000
80.015,0.000
80.436,431.000
80.856,0.000
81.277,0.000
81.697,0.000
82.118,0.000
82.539,0.000
82.959,0.000
83.380,7272.000
83.801,0.000
84.221,0.000
84.642,0.000
85.062,0.000
85.483,0.000
85.904,0.000
86.324,574.000
86.745,0.000
87.166,0.000
87.586,0.000
88.007,0.000
88.427,0.000
88.848,0.000
89.269,0.000
89.689,0.000
90.110,0.000
90.531,0.000
90.951,0.000
91.372,7071.000
91.792,0.000
92.213,0.000
92.634,0.000
93.054,0.000
93.475,0.000
93.896,0.000
94.316,0.000
94.737,0.000
95.157,0.000
95.578,0.000
95.999,0.000
96.419,448.000
96.840,0.000
97.261,0.000
97.681,0.000
98.102,0.000
98.522,0.000
98.943,0.000
99.364,9694.000
99.784,0.000
100.205,0.000
100.626,0.000
101.046,0.000
101.467,0.000
101.887,0.000
102.308,0.000
102.729,0.000
103.149,0.000
103.570,0.000
103.991,0.000
104.411,0.000
104.832,0.000
105.252,0.000
105.673,0.000
106.094,0.000
106.514,0.000
106.935,0.000
107.356,0.000
107.776,0.000
108.197,0.000
108.617,0.000
109.038,0.000
109.459,0.000
109.879,0.000
110.300,0.000
110.721,0.000
111.141,0.000
111.562,0.000
111.982,0.000
112.403,0.000
112.824,0.000
113.244,0.000
113.665,0.000
114.086,0.000
114.506,0.000
114.927,0.000
115.347,0.000
115.768,0.000
116.189,0.000
116.609,0.000
117.030,0.000
117.451,0.000
117.871,0.000
118.292,0.000
118.712,0.000
119.133,0.000
119.554,0.000
119.974,0.000
120.395,0.000
120.816,0.000
121.236,0.000
121.657,0.000
122.078,0.000
122.498,0.000
122.919,0.000
123.339,0.000
123.760,0.000
124.181,0.000
124.601,0.000
124.987,0.000

File: CHROMTAB.CSV
"Path","File","Date Acquired","Sample","Misc"
"C:\Users\Admin\OneDrive - Northwestern University\DWTR-SERDP PROJECT'S DOCUMENTS-selected\Data and Analysis\Raw Data\TGA-MS\2021\","DWTRMN.D","22 Sep 2021  10:04    "," "," "
"TIC: DWTRMN.D\data.ms"
0.096,140978.000
0.517,128980.000
0.937,134330.000
1.358,3300987.000
1.779,30941.000
2.199,32003.000
2.620,31141.000
3.040,31162.000
3.461,33593.000
3.882,31740.000
4.302,32448.000
4.723,31010.000
5.144,30655.000
5.564,32753.000
5.985,30947.000
6.405,38728.000
6.826,30526.000
7.247,31478.000
7.667,31147.000
8.088,30937.000
8.509,32527.000
8.929,31330.000
9.350,2337165.000
9.770,31002.000
10.191,30386.000
10.612,31336.000
11.032,31101.000
11.453,33507.000
11.874,31972.000
12.294,31518.000
12.715,31104.000
13.135,30815.000
13.556,33216.000
13.977,30894.000
14.397,48243.000
14.818,30531.000
15.239,30375.000
15.659,30086.000
16.080,31010.000
16.500,32190.000
16.921,30856.000
17.342,1905384.000
17.762,30372.000
18.183,30174.000
18.604,31086.000
19.024,30765.000
19.445,33968.000
19.865,30895.000
20.286,30900.000
20.707,31310.000
21.127,30426.000
21.548,31770.000
21.969,30718.000
22.389,76682.000
22.810,30755.000
23.230,30153.000
23.651,30972.000
24.072,30380.000
24.492,32868.000
24.913,31011.000
25.334,974602.000
25.754,30657.000
26.175,30280.000
26.595,30998.000
27.016,29887.000
27.437,32992.000
27.857,29869.000
28.278,29985.000
28.699,30424.000
29.119,30914.000
29.540,31901.000
29.960,30699.000
30.381,187707.000
30.802,30754.000
31.222,30036.000
31.643,30333.000
32.064,30119.000
32.484,32294.000
32.905,30182.000
33.325,236289.000
33.746,30691.000
34.167,30458.000
34.587,31333.000
35.008,30971.000
35.429,33244.000
35.849,30492.000
36.270,29810.000
36.690,29947.000
37.111,30691.000
37.532,32554.000
37.952,30217.000
38.373,613765.000
38.794,30442.000
39.214,30688.000
39.635,30646.000
40.055,29940.000
40.476,33014.000
40.897,30119.000
41.317,44994.000
41.738,30652.000
42.159,30239.000
42.579,30625.000
43.000,29448.000
43.420,34674.000
43.841,30279.000
44.262,29744.000
44.682,30665.000
45.103,29494.000
45.524,31644.000
45.944,30159.000
46.365,1507300.000
46.785,29685.000
47.206,29729.000
47.627,29826.000
48.047,29754.000
48.468,32510.000
48.889,29701.000
49.309,31638.000
49.730,30423.000
50.150,30388.000
50.571,31585.000
50.992,30162.000
51.412,35339.000
51.833,30464.000
52.254,29318.000
52.674,30692.000
53.095,29541.000
53.515,31636.000
53.936,30008.000
54.357,2432473.000
54.777,29857.000
55.198,29860.000
55.619,29838.000
56.039,29731.000
56.460,31876.000
56.881,29106.000
57.301,31124.000
57.722,30074.000
58.142,29977.000
58.563,31437.000
58.984,29505.000
59.404,41178.000
59.825,29281.000
60.246,29487.000
60.666,29391.000
61.087,29757.000
61.507,31235.000
61.928,29150.000
62.349,2811421.000
62.769,29330.000
63.190,29870.000
63.611,30198.000
64.031,29899.000
64.452,32408.000
64.872,29223.000
65.293,31200.000
65.714,30257.000
66.134,29873.000
66.555,31661.000
66.976,29715.000
67.396,60558.000
67.817,30133.000
68.237,29537.000
68.658,29629.000
69.079,29467.000
69.499,31622.000
69.920,28853.000
70.341,2387102.000
70.761,29266.000
71.182,29784.000
71.602,29144.000
72.023,29098.000
72.444,31706.000
72.864,29271.000
73.285,29001.000
73.706,28421.000
74.126,29999.000
74.547,31833.000
74.967,29516.000
75.388,168313.000
75.809,28940.000
76.229,28879.000
76.650,30185.000
77.071,29871.000
77.491,31372.000
77.912,29176.000
78.332,1216695.000
78.753,29672.000
79.174,29937.000
79.594,29380.000
80.015,29756.000
80.436,32463.000
80.856,29526.000
81.277,29363.000
81.697,29168.000
82.118,29643.000
82.539,30639.000
82.959,29016.000
83.380,404342.000
83.801,29024.000
84.221,29504.000
84.642,29004.000
85.062,29412.000
85.483,31083.000
85.904,29569.000
86.324,174559.000
86.745,29345.000
87.166,28445.000
87.586,29942.000
88.007,29614.000
88.427,32142.000
88.848,28778.000
89.269,28704.000
89.689,29178.000
90.110,28794.000
90.531,30664.000
90.951,28966.000
91.372,1249703.000
91.792,29253.000
92.213,29131.000
92.634,28599.000
93.054,28276.000
93.475,30877.000
93.896,28454.000
94.316,37359.000
94.737,28916.000
95.157,29235.000
95.578,30161.000
95.999,28993.000
96.419,32419.000
96.840,28981.000
97.261,28179.000
97.681,28072.000
98.102,29029.000
98.522,30036.000
98.943,28848.000
99.364,2397826.000
99.784,28406.000
100.205,28598.000
100.626,28854.000
101.046,28235.000
101.467,30138.000
101.887,28714.000
102.308,28398.000
102.729,29053.000
103.149,28466.000
103.570,28879.000
103.991,28755.000
104.411,28452.000
104.832,28912.000
105.252,29596.000
105.673,29017.000
106.094,28590.000
106.514,28997.000
106.935,29515.000
107.356,29130.000
107.776,30038.000
108.197,28982.000
108.617,29487.000
109.038,29017.000
109.459,29986.000
109.879,29771.000
110.300,28508.000
110.721,29713.000
111.141,29511.000
111.562,31052.000
111.982,29899.000
112.403,29366.000
112.824,30158.000
113.244,29354.000
113.665,29965.000
114.086,29967.000
114.506,30731.000
114.927,30292.000
115.347,30151.000
115.768,30584.000
116.189,30164.000
116.609,30242.000
117.030,30140.000
117.451,30031.000
117.871,30137.000
118.292,30726.000
118.712,31156.000
119.133,29560.000
119.554,30409.000
119.974,30606.000
120.395,30701.000
120.816,30918.000
121.236,31516.000
121.657,30991.000
122.078,31325.000
122.498,31019.000
122.919,30066.000
123.339,30260.000
123.760,30147.000
124.181,30558.000
124.601,30535.000
124.987,30858.000

File: tic_front.csv
D:\GAILLARD\WALLACE_SAMUEL\DWTRMN.D 22 Sep 21  10:04 am
Start of data points
0.0960167,140978
0.516633,128980
0.937267,134330
1.35788,3300987
1.77852,30941
2.19913,32003
2.61977,31141
3.0404,31162
3.46102,33593
3.88165,31740
4.30227,32448
4.7229,31010
5.14352,30655
5.56415,32753
5.98477,30947
6.4054,38728
6.82603,30526
7.24665,31478
7.66728,31147
8.0879,30937
8.50853,32527
8.92915,31330
9.34978,2337165
9.7704,31002
10.191,30386
10.6117,31336
11.0323,31101
11.4529,33507
11.8735,31972
12.2942,31518
12.7148,31104
13.1354,30815
13.556,33216
13.9767,30894
14.3973,48243
14.8179,30531
15.2385,30375
15.6592,30086
16.0798,31010
16.5004,32190
16.9211,30856
17.3417,1905384
17.7623,30372
18.1829,30174
18.6036,31086
19.0242,30765
19.4448,33968
19.8654,30895
20.286,30900
20.7067,31310
21.1273,30426
21.5479,31770
21.9686,30718
22.3892,76682
22.8098,30755
23.2304,30153
23.6511,30972
24.0717,30380
24.4923,32868
24.9129,31011
25.3336,974602
25.7542,30657
26.1748,30280
26.5954,30998
27.0161,29887
27.4367,32992
27.8573,29869
28.2779,29985
28.6986,30424
29.1192,30914
29.5398,31901
29.9605,30699
30.3811,187707
30.8017,30754
31.2223,30036
31.643,30333
32.0636,30119
32.4842,32294
32.9048,30182
33.3254,236289
33.7461,30691
34.1667,30458
34.5873,31333
35.008,30971
35.4286,33244
35.8492,30492
36.2698,29810
36.6904,29947
37.1111,30691
37.5317,32554
37.9523,30217
38.373,613765
38.7936,30442
39.2142,30688
39.6348,30646
40.0555,29940
40.4761,33014
40.8967,30119
41.3173,44994
41.738,30652
42.1586,30239
42.5792,30625
42.9999,29448
43.4205,34674
43.8411,30279
44.2617,29744
44.6824,30665
45.103,29494
45.5236,31644
45.9442,30159
46.3649,1507300
46.7855,29685
47.2061,29729
47.6267,29826
48.0474,29754
48.468,32510
48.8886,29701
49.3092,31638
49.7298,30423
50.1505,30388
50.5711,31585
50.9917,30162
51.4124,35339
51.833,30464
52.2536,29318
52.6742,30692
53.0949,29541
53.5155,31636
53.9361,30008
54.3567,2432473
54.7774,29857
55.198,29860
55.6186,29838
56.0393,29731
56.4599,31876
56.8805,29106
57.3011,31124
57.7218,30074
58.1424,29977
58.563,31437
58.9836,29505
59.4043,41178
59.8249,29281
60.2455,29487
60.6661,29391
61.0868,29757
61.5074,31235
61.928,29150
62.3486,2811421
62.7693,29330
63.1899,29870
63.6105,30198
64.0311,29899
64.4518,32408
64.8724,29223
65.293,31200
65.7136,30257
66.1343,29873
66.5549,31661
66.9755,29715
67.3961,60558
67.8168,30133
68.2374,29537
68.658,29629
69.0786,29467
69.4993,31622
69.9199,28853
70.3405,2387102
70.7612,29266
71.1818,29784
71.6024,29144
72.023,29098
72.4437,31706
72.8643,29271
73.2849,29001
73.7055,28421
74.1262,29999
74.5468,31833
74.9674,29516
75.388,168313
75.8087,28940
76.2293,28879
76.6499,30185
77.0705,29871
77.4912,31372
77.9118,29176
78.3324,1216695
78.753,29672
79.1737,29937
79.5943,29380
80.0149,29756
80.4355,32463
80.8562,29526
81.2768,29363
81.6974,29168
82.1181,29643
82.5387,30639
82.9593,29016
83.3799,404342
83.8006,29024
84.2212,29504
84.6418,29004
85.0624,29412
85.4831,31083
85.9037,29569
86.3243,174559
86.7449,29345
87.1656,28445
87.5862,29942
88.0068,29614
88.4274,32142
88.8481,28778
89.2687,28704
89.6893,29178
90.1099,28794
90.5306,30664
90.9512,28966
91.3718,1249703
91.7924,29253
92.2131,29131
92.6337,28599
93.0543,28276
93.4749,30877
93.8956,28454
94.3162,37359
94.7368,28916
95.1575,29235
95.5781,30161
95.9987,28993
96.4193,32419
96.84,28981
97.2606,28179
97.6812,28072
98.1018,29029
98.5225,30036
98.9431,28848
99.3637,2397826
99.7843,28406
100.205,28598
100.626,28854
101.046,28235
101.467,30138
101.887,28714
102.308,28398
102.729,29053
103.149,28466
103.57,28879
103.991,28755
104.411,28452
104.832,28912
105.252,29596
105.673,29017
106.094,28590
106.514,28997
106.935,29515
107.356,29130
107.776,30038
108.197,28982
108.617,29487
109.038,29017
109.459,29986
109.879,29771
110.3,28508
110.721,29713
111.141,29511
111.562,31052
111.982,29899
112.403,29366
112.824,30158
113.244,29354
113.665,29965
114.086,29967
114.506,30731
114.927,30292
115.347,30151
115.768,30584
116.189,30164
116.609,30242
117.03,30140
117.451,30031
117.871,30137
118.292,30726
118.712,31156
119.133,29560
119.554,30409
119.974,30606
120.395,30701
120.816,30918
121.236,31516
121.657,30991
122.078,31325
122.498,31019
122.919,30066
123.339,30260
123.76,30147
124.181,30558
124.601,30535
124.987,30858