Folder: Al-DWTR-Characterization-data/TGA-MS/DWTRNC.D

Note: README.md
# Al-DWTR-Characterization

The Diversity of Aluminum-Based DrinkingWater Treatment Residuals for Use in Environmental Remediation 

Wallace et al. (2023) 

# Citation for the use of these data

Samuel M. Wallace(a), Yuchi Zhang(a), Lang Zhou(b), Qing Ma(c), William E. Guise(c), Nancy D. Denslow(d), Jean-Claude Bonzongo(b), and Jean-Fran√ßois Gaillard(a)(2023) *Environmental Science: Water Research & Technology* - in revision - 

a) Department of Civil and Environmental Engineering, Northwestern University, 2145
Sheridan Road, Evanston, IL 60208, USA. E-mail: jf-gaillard@northwestern.edu

b) Engineering School of Sustainable Infrastructure and Environment, Department of
Environmental Engineering Sciences, University of Florida, PO Box 116450, Gainesville,
FL 32611, USA.

c) DND-CAT Synchrotron Research Center, Northwestern University, 9700 South Cass
Avenue, Argonne, IL 60439, USA.

d) Departments of Physiological Sciences and of Biochemistry and Molecular Biology and
Center for Environmental and Human Toxicology, University of Florida, University of
Florida, Gainesville, FL 32610, USA.

File: CHROMTAB.CSV
"Path","File","Date Acquired","Sample","Misc"
"C:\Users\Admin\OneDrive - Northwestern University\DWTR-SERDP PROJECT'S DOCUMENTS-selected\Data and Analysis\Raw Data\TGA-MS\2021\","DWTRNC.D","22 Sep 2021  12:50    "," "," "
"TIC: DWTRNC.D\data.ms"
0.096,142138.000
0.517,133703.000
0.937,133921.000
1.358,3192587.000
1.779,29602.000
2.199,29811.000
2.620,30473.000
3.040,30076.000
3.461,32687.000
3.882,30487.000
4.302,31586.000
4.723,29886.000
5.144,30318.000
5.564,30819.000
5.985,29818.000
6.405,36352.000
6.826,29756.000
7.247,29587.000
7.667,29705.000
8.088,30723.000
8.509,31657.000
8.929,30438.000
9.350,2465096.000
9.770,30128.000
10.191,30135.000
10.612,30111.000
11.032,30061.000
11.453,32477.000
11.874,30740.000
12.294,32432.000
12.715,29421.000
13.135,30097.000
13.556,31450.000
13.977,30024.000
14.397,45892.000
14.818,29690.000
15.239,30256.000
15.659,30128.000
16.080,30733.000
16.500,31787.000
16.921,29861.000
17.342,2115591.000
17.762,30453.000
18.183,29744.000
18.604,29730.000
19.024,30387.000
19.445,33450.000
19.865,30627.000
20.286,30321.000
20.707,30377.000
21.127,30683.000
21.548,31409.000
21.969,29833.000
22.389,76400.000
22.810,30037.000
23.230,29930.000
23.651,30357.000
24.072,29664.000
24.492,31760.000
24.913,30107.000
25.334,1013334.000
25.754,30637.000
26.175,30555.000
26.595,30311.000
27.016,30733.000
27.437,32968.000
27.857,30425.000
28.278,30226.000
28.699,30375.000
29.119,29982.000
29.540,32228.000
29.960,29787.000
30.381,190456.000
30.802,30287.000
31.222,29889.000
31.643,30278.000
32.064,29992.000
32.484,31711.000
32.905,29984.000
33.325,229003.000
33.746,29824.000
34.167,29545.000
34.587,31413.000
35.008,29561.000
35.429,32805.000
35.849,30892.000
36.270,29290.000
36.690,30180.000
37.111,30566.000
37.532,32324.000
37.952,29697.000
38.373,579768.000
38.794,29745.000
39.214,30145.000
39.635,30414.000
40.055,31080.000
40.476,32829.000
40.897,30395.000
41.317,44713.000
41.738,29070.000
42.159,29846.000
42.579,31526.000
43.000,29655.000
43.421,33100.000
43.841,30325.000
44.262,29821.000
44.682,30070.000
45.103,29493.000
45.524,32155.000
45.944,30351.000
46.365,1468704.000
46.785,29777.000
47.206,29597.000
47.627,29961.000
48.047,29866.000
48.468,31618.000
48.889,30151.000
49.309,31091.000
49.730,29496.000
50.151,29303.000
50.571,31522.000
50.992,29634.000
51.412,34160.000
51.833,29463.000
52.254,29764.000
52.674,29899.000
53.095,29089.000
53.516,32092.000
53.936,29565.000
54.357,2426332.000
54.777,30188.000
55.198,29756.000
55.619,29747.000
56.039,29977.000
56.460,31378.000
56.881,29392.000
57.301,31252.000
57.722,28520.000
58.142,29815.000
58.563,30321.000
58.984,29293.000
59.404,39718.000
59.825,29067.000
60.246,29642.000
60.666,29846.000
61.087,29115.000
61.507,30668.000
61.928,30305.000
62.349,2845980.000
62.769,28926.000
63.190,30035.000
63.611,29340.000
64.031,29539.000
64.452,31750.000
64.872,29932.000
65.293,30327.000
65.714,29807.000
66.134,29284.000
66.555,31009.000
66.976,29407.000
67.396,57315.000
67.817,29227.000
68.237,29193.000
68.658,29740.000
69.079,28934.000
69.499,30996.000
69.920,29478.000
70.341,2369375.000
70.761,28988.000
71.182,29499.000
71.602,28998.000
72.023,29140.000
72.444,31787.000
72.864,28817.000
73.285,29957.000
73.706,29547.000
74.126,28975.000
74.547,30161.000
74.967,29067.000
75.388,153863.000
75.809,28620.000
76.229,29248.000
76.650,29293.000
77.071,29792.000
77.491,30456.000
77.912,29271.000
78.332,1234833.000
78.753,28860.000
79.174,29155.000
79.594,29547.000
80.015,29144.000
80.436,31713.000
80.856,29234.000
81.277,28382.000
81.697,28365.000
82.118,28551.000
82.539,30775.000
82.959,27935.000
83.380,479358.000
83.801,29571.000
84.221,29521.000
84.642,28825.000
85.062,28769.000
85.483,31300.000
85.904,28161.000
86.324,172459.000
86.745,28575.000
87.166,28977.000
87.586,29636.000
88.007,28686.000
88.427,31970.000
88.848,28257.000
89.269,28452.000
89.689,28635.000
90.110,29016.000
90.531,30517.000
90.951,28079.000
91.372,1228549.000
91.792,29230.000
92.213,27700.000
92.634,28081.000
93.054,27980.000
93.475,30540.000
93.896,28648.000
94.316,36793.000
94.737,29057.000
95.157,28843.000
95.578,28893.000
95.999,28770.000
96.419,32136.000
96.840,27943.000
97.261,28850.000
97.681,28313.000
98.102,27969.000
98.522,29174.000
98.943,27485.000
99.364,2455315.000
99.784,28737.000
100.205,28140.000
100.626,28835.000
101.046,28041.000
101.467,29958.000
101.887,27731.000
102.308,27819.000
102.729,28989.000
103.149,27720.000
103.570,28137.000
103.991,29081.000
104.411,28600.000
104.832,28621.000
105.252,28779.000
105.673,29126.000
106.094,28752.000
106.514,28553.000
106.935,28601.000
107.356,28955.000
107.776,28763.000
108.197,29276.000
108.618,28415.000
109.038,29020.000
109.459,28244.000
109.879,28848.000
110.300,28837.000
110.721,29625.000
111.141,28985.000
111.562,29807.000
111.983,29837.000
112.403,30201.000
112.824,29008.000
113.244,29936.000
113.665,29914.000
114.086,29498.000
114.506,29751.000
114.927,29672.000
115.348,29953.000
115.768,30005.000
116.189,30204.000
116.609,29917.000
117.030,30213.000
117.451,30297.000
117.871,30315.000
118.292,30088.000
118.713,29626.000
119.133,30206.000
119.554,30334.000
119.974,30875.000
120.395,29538.000
120.816,29801.000
121.236,30029.000
121.657,30546.000
122.078,31141.000
122.498,30419.000
122.919,30349.000
123.339,30812.000
123.760,31058.000
124.181,30608.000
124.601,31225.000
124.987,30700.000

File: tic_front.csv
D:\GAILLARD\WALLACE_SAMUEL\DWTRNC.D 22 Sep 21  12:50 pm
Start of data points
0.0960333,142138
0.516667,133703
0.937283,133921
1.35792,3192587
1.77853,29602
2.19917,29811
2.61978,30473
3.04042,30076
3.46103,32687
3.88167,30487
4.3023,31586
4.72292,29886
5.14355,30318
5.56417,30819
5.9848,29818
6.40542,36352
6.82605,29756
7.24667,29587
7.6673,29705
8.08792,30723
8.50855,31657
8.92918,30438
9.3498,2465096
9.77043,30128
10.1911,30135
10.6117,30111
11.0323,30061
11.4529,32477
11.8736,30740
12.2942,32432
12.7148,29421
13.1354,30097
13.5561,31450
13.9767,30024
14.3973,45892
14.8179,29690
15.2386,30256
15.6592,30128
16.0798,30733
16.5004,31787
16.9211,29861
17.3417,2115591
17.7623,30453
18.183,29744
18.6036,29730
19.0242,30387
19.4448,33450
19.8655,30627
20.2861,30321
20.7067,30377
21.1273,30683
21.548,31409
21.9686,29833
22.3892,76400
22.8098,30037
23.2305,29930
23.6511,30357
24.0717,29664
24.4923,31760
24.913,30107
25.3336,1013334
25.7542,30637
26.1748,30555
26.5955,30311
27.0161,30733
27.4367,32968
27.8573,30425
28.278,30226
28.6986,30375
29.1192,29982
29.5398,32228
29.9605,29787
30.3811,190456
30.8017,30287
31.2224,29889
31.643,30278
32.0636,29992
32.4842,31711
32.9049,29984
33.3255,229003
33.7461,29824
34.1667,29545
34.5874,31413
35.008,29561
35.4286,32805
35.8492,30892
36.2699,29290
36.6905,30180
37.1111,30566
37.5317,32324
37.9524,29697
38.373,579768
38.7936,29745
39.2142,30145
39.6349,30414
40.0555,31080
40.4761,32829
40.8967,30395
41.3174,44713
41.738,29070
42.1586,29846
42.5792,31526
42.9999,29655
43.4205,33100
43.8411,30325
44.2617,29821
44.6824,30070
45.103,29493
45.5236,32155
45.9443,30351
46.3649,1468704
46.7855,29777
47.2061,29597
47.6268,29961
48.0474,29866
48.468,31618
48.8886,30151
49.3093,31091
49.7299,29496
50.1505,29303
50.5711,31522
50.9918,29634
51.4124,34160
51.833,29463
52.2536,29764
52.6743,29899
53.0949,29089
53.5155,32092
53.9361,29565
54.3568,2426332
54.7774,30188
55.198,29756
55.6186,29747
56.0393,29977
56.4599,31378
56.8805,29392
57.3012,31252
57.7218,28520
58.1424,29815
58.563,30321
58.9837,29293
59.4043,39718
59.8249,29067
60.2455,29642
60.6662,29846
61.0868,29115
61.5074,30668
61.928,30305
62.3487,2845980
62.7693,28926
63.1899,30035
63.6105,29340
64.0311,29539
64.4518,31750
64.8724,29932
65.293,30327
65.7137,29807
66.1343,29284
66.5549,31009
66.9755,29407
67.3962,57315
67.8168,29227
68.2374,29193
68.658,29740
69.0787,28934
69.4993,30996
69.9199,29478
70.3406,2369375
70.7612,28988
71.1818,29499
71.6024,28998
72.023,29140
72.4437,31787
72.8643,28817
73.2849,29957
73.7056,29547
74.1262,28975
74.5468,30161
74.9674,29067
75.3881,153863
75.8087,28620
76.2293,29248
76.6499,29293
77.0705,29792
77.4912,30456
77.9118,29271
78.3324,1234833
78.7531,28860
79.1737,29155
79.5943,29547
80.0149,29144
80.4356,31713
80.8562,29234
81.2768,28382
81.6974,28365
82.1181,28551
82.5387,30775
82.9593,27935
83.38,479358
83.8006,29571
84.2212,29521
84.6418,28825
85.0624,28769
85.4831,31300
85.9037,28161
86.3243,172459
86.745,28575
87.1656,28977
87.5862,29636
88.0068,28686
88.4275,31970
88.8481,28257
89.2687,28452
89.6893,28635
90.1099,29016
90.5306,30517
90.9512,28079
91.3718,1228549
91.7925,29230
92.2131,27700
92.6337,28081
93.0543,27980
93.475,30540
93.8956,28648
94.3162,36793
94.7368,29057
95.1575,28843
95.5781,28893
95.9987,28770
96.4194,32136
96.84,27943
97.2606,28850
97.6812,28313
98.1018,27969
98.5225,29174
98.9431,27485
99.3637,2455315
99.7844,28737
100.205,28140
100.626,28835
101.046,28041
101.467,29958
101.887,27731
102.308,27819
102.729,28989
103.149,27720
103.57,28137
103.991,29081
104.411,28600
104.832,28621
105.252,28779
105.673,29126
106.094,28752
106.514,28553
106.935,28601
107.356,28955
107.776,28763
108.197,29276
108.618,28415
109.038,29020
109.459,28244
109.879,28848
110.3,28837
110.721,29625
111.141,28985
111.562,29807
111.983,29837
112.403,30201
112.824,29008
113.244,29936
113.665,29914
114.086,29498
114.506,29751
114.927,29672
115.348,29953
115.768,30005
116.189,30204
116.609,29917
117.03,30213
117.451,30297
117.871,30315
118.292,30088
118.713,29626
119.133,30206
119.554,30334
119.974,30875
120.395,29538
120.816,29801
121.236,30029
121.657,30546
122.078,31141
122.498,30419
122.919,30349
123.339,30812
123.76,31058
124.181,30608
124.601,31225
124.987,30700