Folder: Al-DWTR-Characterization-data/TGA-MS/DWTRWY.D

Note: TGA-MS/DWTRWY.D/acqmeth.txt
INSTRUMENT CONTROL PARAMETERS:    TGA-GC-MS
                                           -------------------------------------------

   D:\IMSERC\METHODS-GCMS\DWTR-100MINS.M
      Tue Sep 07 12:16:10 2021

Control Information
------- -----------

Sample Inlet      :  GC
Injection Source  :  External Device
Mass Spectrometer :  Enabled


 No Sample Prep method has been assigned to this method.

Oven
Equilibration Time                           3 min
Max Temperature                              350 degrees C
Slow Fan                                     Disabled
Oven Program                                 On
    200 °C for 125 min
Run Time                                     125 min




Sample Overlap
Sample overlap is not enabled



Front SS Inlet He
Mode                                         Splitless
Heater                                       On    250 °C
Pressure                                     On    13.407 psi
Total Flow                                   On    19 mL/min
Septum Purge Flow                            On    3 mL/min
Gas Saver                                    Off
Purge Flow to Split Vent                     15 mL/min at 0 min


Thermal Aux 1 (User Configurable)
Heater                                       Off
Temperature Program                          Off
    250 °C for 0 min
Run Time                                     125 min



Thermal Aux 2 (MSD Transfer Line)
Heater                                       On
Temperature Program                          On
    250 °C for 0 min
Run Time                                     125 min



Thermal Aux 3 (Unknown)
Heater                                       On
Temperature Program                          On
    250 °C for 0 min
Run Time                                     125 min


Column #1

350 °C: 25 m x 250 µm x 0.25 µm
In: Front SS Inlet He
Out: Vacuum

(Initial)                                    200 °C
Pressure                                     13.407 psi
Flow                                         1 mL/min
Average Velocity                             42.435 cm/sec
Holdup Time                                  0.9819 min
Flow Program                                 Off
    1 mL/min for 0 min
Run Time                                     125 min



Valve 1
Gas Sampling Valve                           Off
GSV Loop Volume                              0.25 mL
Load Time                                    0.2 min
Inject Time                                  0.25 min

Valve Box
Heater                                       On    250 °C

Signals
Signal #1: Test Plot                         Save Off
                                             50 Hz
Signal #2: Test Plot                         Save Off
                                             50 Hz
Signal #3: Test Plot                         Save Off
                                             50 Hz
Signal #4: Test Plot       

Note: README.md
# Al-DWTR-Characterization

The Diversity of Aluminum-Based DrinkingWater Treatment Residuals for Use in Environmental Remediation 

Wallace et al. (2023) 

# Citation for the use of these data

Samuel M. Wallace(a), Yuchi Zhang(a), Lang Zhou(b), Qing Ma(c), William E. Guise(c), Nancy D. Denslow(d), Jean-Claude Bonzongo(b), and Jean-Fran√ßois Gaillard(a)(2023) *Environmental Science: Water Research & Technology* - in revision - 

a) Department of Civil and Environmental Engineering, Northwestern University, 2145
Sheridan Road, Evanston, IL 60208, USA. E-mail: jf-gaillard@northwestern.edu

b) Engineering School of Sustainable Infrastructure and Environment, Department of
Environmental Engineering Sciences, University of Florida, PO Box 116450, Gainesville,
FL 32611, USA.

c) DND-CAT Synchrotron Research Center, Northwestern University, 9700 South Cass
Avenue, Argonne, IL 60439, USA.

d) Departments of Physiological Sciences and of Biochemistry and Molecular Biology and
Center for Environmental and Human Toxicology, University of Florida, University of
Florida, Gainesville, FL 32610, USA.

File: CHROMTAB.CSV
"Path","File","Date Acquired","Sample","Misc"
"C:\Users\Admin\OneDrive - Northwestern University\DWTR-SERDP PROJECT'S DOCUMENTS-selected\Data and Analysis\Raw Data\TGA-MS\2021\","DWTRWY.D"," 7 Sep 2021  10:11    "," "," "
"TIC: DWTRWY.D\data.ms"
0.096,161385.000
0.517,139068.000
0.937,149281.000
1.358,2953177.000
1.779,35880.000
2.199,37080.000
2.620,35954.000
3.040,36542.000
3.461,39193.000
3.882,35647.000
4.302,37457.000
4.723,36062.000
5.144,36252.000
5.564,36651.000
5.985,35169.000
6.405,44067.000
6.826,34612.000
7.247,34407.000
7.667,34893.000
8.088,34618.000
8.509,37941.000
8.929,35564.000
9.350,2771870.000
9.770,35545.000
10.191,35435.000
10.612,35485.000
11.032,34391.000
11.453,38919.000
11.874,35036.000
12.294,36047.000
12.715,34646.000
13.135,34614.000
13.556,37595.000
13.977,34471.000
14.397,62277.000
14.818,34954.000
15.239,33378.000
15.659,34862.000
16.080,34825.000
16.500,37848.000
16.921,34616.000
17.342,2295454.000
17.762,34867.000
18.183,34642.000
18.604,34934.000
19.024,34717.000
19.445,38878.000
19.865,33958.000
20.286,34766.000
20.707,34291.000
21.127,34230.000
21.548,37203.000
21.969,33487.000
22.389,102477.000
22.810,33857.000
23.230,34942.000
23.651,34860.000
24.072,33454.000
24.492,37567.000
24.913,34084.000
25.334,1079554.000
25.754,34895.000
26.175,33605.000
26.595,34500.000
27.016,34775.000
27.437,39155.000
27.857,34194.000
28.278,33326.000
28.699,34546.000
29.119,34733.000
29.540,36681.000
29.960,34351.000
30.381,247653.000
30.802,34470.000
31.222,33833.000
31.643,34450.000
32.064,33561.000
32.484,37174.000
32.905,33814.000
33.325,237926.000
33.746,34205.000
34.167,33723.000
34.587,36504.000
35.008,33442.000
35.429,39379.000
35.849,34018.000
36.270,34037.000
36.690,34077.000
37.111,34026.000
37.532,36942.000
37.952,34136.000
38.373,775474.000
38.794,34012.000
39.214,33064.000
39.635,33979.000
40.056,33515.000
40.476,37036.000
40.897,33208.000
41.317,47001.000
41.738,33733.000
42.159,33519.000
42.579,34526.000
43.000,33127.000
43.421,42617.000
43.841,32706.000
44.262,33791.000
44.682,33103.000
45.103,32978.000
45.524,35420.000
45.944,32428.000
46.365,1885886.000
46.785,33835.000
47.206,32301.000
47.627,33067.000
48.047,32571.000
48.468,36406.000
48.889,34154.000
49.309,34120.000
49.730,33652.000
50.151,33317.000
50.571,35629.000
50.992,32837.000
51.412,44610.000
51.833,32857.000
52.254,33440.000
52.674,33572.000
53.095,33660.000
53.516,35968.000
53.936,34168.000
54.357,2884496.000
54.777,34063.000
55.198,34096.000
55.619,33869.000
56.039,33064.000
56.460,37458.000
56.881,33535.000
57.301,34989.000
57.722,34479.000
58.142,34080.000
58.563,37161.000
58.984,33273.000
59.404,48934.000
59.825,32962.000
60.246,33295.000
60.666,34012.000
61.087,33457.000
61.507,35419.000
61.928,33138.000
62.349,3176361.000
62.769,33575.000
63.190,33063.000
63.611,34477.000
64.031,32992.000
64.452,37126.000
64.872,33342.000
65.293,35048.000
65.714,33271.000
66.134,32294.000
66.555,35727.000
66.976,33687.000
67.396,71395.000
67.817,33723.000
68.237,33057.000
68.658,33489.000
69.079,33196.000
69.499,35975.000
69.920,33173.000
70.341,2579153.000
70.761,33538.000
71.182,33282.000
71.602,34107.000
72.023,33619.000
72.444,35712.000
72.864,33020.000
73.285,32966.000
73.706,32409.000
74.126,32695.000
74.547,35140.000
74.967,32058.000
75.388,164454.000
75.809,33750.000
76.229,32765.000
76.650,34044.000
77.071,32285.000
77.491,34313.000
77.912,32579.000
78.332,1056956.000
78.753,32170.000
79.174,33599.000
79.594,34048.000
80.015,32827.000
80.436,36108.000
80.856,32966.000
81.277,32091.000
81.697,32813.000
82.118,32761.000
82.539,33814.000
82.959,32542.000
83.380,514956.000
83.801,32874.000
84.221,31864.000
84.642,32399.000
85.062,31862.000
85.483,34805.000
85.904,32153.000
86.324,168789.000
86.745,32005.000
87.166,31857.000
87.586,33416.000
88.007,32084.000
88.427,35817.000
88.848,31975.000
89.269,31512.000
89.689,31714.000
90.110,31519.000
90.531,33086.000
90.951,31513.000
91.372,1533961.000
91.792,32194.000
92.213,31944.000
92.634,31407.000
93.054,31251.000
93.475,34781.000
93.896,31249.000
94.316,39551.000
94.737,31704.000
95.157,31909.000
95.578,33312.000
95.999,31517.000
96.419,36889.000
96.840,31738.000
97.261,31121.000
97.681,32559.000
98.102,32081.000
98.522,32769.000
98.943,31564.000
99.364,2932003.000
99.784,30826.000
100.205,30667.000
100.626,31523.000
101.046,31486.000
101.467,34463.000
101.887,31821.000
102.308,32355.000
102.729,31024.000
103.149,31424.000
103.570,31968.000
103.991,31576.000
104.411,31477.000
104.832,31344.000
105.253,31778.000
105.673,31628.000
106.094,31455.000
106.514,32166.000
106.935,32281.000
107.356,31299.000
107.776,31185.000
108.197,32169.000
108.618,31771.000
109.038,31442.000
109.459,32138.000
109.879,32040.000
110.300,32258.000
110.721,31409.000
111.141,32050.000
111.562,32539.000
111.983,32678.000
112.403,32690.000
112.824,32960.000
113.244,32991.000
113.665,32419.000
114.086,32659.000
114.506,32617.000
114.927,31680.000
115.348,32914.000
115.768,32827.000
116.189,32500.000
116.609,32536.000
117.030,31959.000
117.451,32863.000
117.871,32709.000
118.292,32651.000
118.713,33399.000
119.133,32379.000
119.554,32577.000
119.974,33726.000
120.395,32696.000
120.816,32461.000
121.236,31590.000
121.657,32473.000
122.078,31812.000
122.498,32017.000
122.919,33459.000
123.339,32794.000
123.760,32041.000
124.181,33072.000
124.601,32618.000
124.987,33409.000

File: spec_300-600_-baseline.CSV
"Path","File","Date Acquired","Sample","Misc"
"C:\Users\Admin\Box\DWTR-SERDP PROJECT'S DOCUMENTS\Data and Analysis\Raw Data\TGA-MS\","DWTRWY.D"," 7 Sep 2021  10:11    "," "," "
"Average of 27.042 to 56.916 min.: DWTRWY.D\data.ms"
12.050,12.000
15.050,16.000
17.050,249.000
18.100,1075.000
26.050,17.000
27.100,25.000
30.000,2.000
31.050,13.000
37.000,0.000
38.000,16.000
39.050,77.000
41.000,151.000
42.000,31.000
43.000,131.000
44.000,2077.000
45.000,31.000
45.950,4.000
50.000,0.000
51.000,5.000
52.000,3.000
53.000,11.000
54.000,6.000
55.050,24.000
56.050,11.000
57.050,4.000
58.000,22.000
65.050,0.000
66.000,0.000
67.050,15.000
68.000,5.000
70.050,1.000
72.050,0.000
77.000,3.000
78.050,14.000
79.050,7.000
80.050,1.000
81.050,5.000
82.050,3.000
91.050,45.000
92.050,15.000
95.000,1.000
96.050,1.000
103.000,0.000
104.050,1.000
105.050,2.000
106.050,3.000
128.000,9.000
197.050,1.000

File: tic_front.csv
D:\GAILLARD\WALLACE_SAMUEL\DWTRWY.D  7 Sep 21  10:11 am
Start of data points
0.0960333,161385
0.516667,139068
0.9373,149281
1.35792,2953177
1.77855,35880
2.19917,37080
2.6198,35954
3.04042,36542
3.46105,39193
3.88167,35647
4.3023,37457
4.72293,36062
5.14355,36252
5.56418,36651
5.9848,35169
6.40543,44067
6.82605,34612
7.24668,34407
7.6673,34893
8.08793,34618
8.50855,37941
8.92918,35564
9.34982,2771870
9.77043,35545
10.1911,35435
10.6117,35485
11.0323,34391
11.4529,38919
11.8736,35036
12.2942,36047
12.7148,34646
13.1354,34614
13.5561,37595
13.9767,34471
14.3973,62277
14.818,34954
15.2386,33378
15.6592,34862
16.0798,34825
16.5005,37848
16.9211,34616
17.3417,2295454
17.7623,34867
18.183,34642
18.6036,34934
19.0242,34717
19.4448,38878
19.8655,33958
20.2861,34766
20.7067,34291
21.1273,34230
21.548,37203
21.9686,33487
22.3892,102477
22.8098,33857
23.2305,34942
23.6511,34860
24.0717,33454
24.4923,37567
24.913,34084
25.3336,1079554
25.7542,34895
26.1748,33605
26.5955,34500
27.0161,34775
27.4367,39155
27.8574,34194
28.278,33326
28.6986,34546
29.1192,34733
29.5399,36681
29.9605,34351
30.3811,247653
30.8017,34470
31.2224,33833
31.643,34450
32.0636,33561
32.4842,37174
32.9049,33814
33.3255,237926
33.7461,34205
34.1667,33723
34.5874,36504
35.008,33442
35.4286,39379
35.8492,34018
36.2699,34037
36.6905,34077
37.1111,34026
37.5317,36942
37.9524,34136
38.373,775474
38.7936,34012
39.2142,33064
39.6349,33979
40.0555,33515
40.4761,37036
40.8968,33208
41.3174,47001
41.738,33733
42.1586,33519
42.5793,34526
42.9999,33127
43.4205,42617
43.8411,32706
44.2617,33791
44.6824,33103
45.103,32978
45.5236,35420
45.9443,32428
46.3649,1885886
46.7855,33835
47.2061,32301
47.6268,33067
48.0474,32571
48.468,36406
48.8886,34154
49.3093,34120
49.7299,33652
50.1505,33317
50.5711,35629
50.9918,32837
51.4124,44610
51.833,32857
52.2536,33440
52.6743,33572
53.0949,33660
53.5155,35968
53.9362,34168
54.3568,2884496
54.7774,34063
55.198,34096
55.6187,33869
56.0393,33064
56.4599,37458
56.8805,33535
57.3012,34989
57.7218,34479
58.1424,34080
58.563,37161
58.9837,33273
59.4043,48934
59.8249,32962
60.2455,33295
60.6662,34012
61.0868,33457
61.5074,35419
61.928,33138
62.3487,3176361
62.7693,33575
63.1899,33063
63.6105,34477
64.0312,32992
64.4518,37126
64.8724,33342
65.293,35048
65.7137,33271
66.1343,32294
66.5549,35727
66.9755,33687
67.3962,71395
67.8168,33723
68.2374,33057
68.6581,33489
69.0787,33196
69.4993,35975
69.9199,33173
70.3406,2579153
70.7612,33538
71.1818,33282
71.6024,34107
72.023,33619
72.4437,35712
72.8643,33020
73.2849,32966
73.7056,32409
74.1262,32695
74.5468,35140
74.9674,32058
75.3881,164454
75.8087,33750
76.2293,32765
76.6499,34044
77.0706,32285
77.4912,34313
77.9118,32579
78.3324,1056956
78.7531,32170
79.1737,33599
79.5943,34048
80.0149,32827
80.4356,36108
80.8562,32966
81.2768,32091
81.6975,32813
82.1181,32761
82.5387,33814
82.9593,32542
83.38,514956
83.8006,32874
84.2212,31864
84.6418,32399
85.0624,31862
85.4831,34805
85.9037,32153
86.3243,168789
86.745,32005
87.1656,31857
87.5862,33416
88.0068,32084
88.4275,35817
88.8481,31975
89.2687,31512
89.6893,31714
90.11,31519
90.5306,33086
90.9512,31513
91.3718,1533961
91.7925,32194
92.2131,31944
92.6337,31407
93.0543,31251
93.475,34781
93.8956,31249
94.3162,39551
94.7369,31704
95.1575,31909
95.5781,33312
95.9987,31517
96.4194,36889
96.84,31738
97.2606,31121
97.6812,32559
98.1018,32081
98.5225,32769
98.9431,31564
99.3637,2932003
99.7844,30826
100.205,30667
100.626,31523
101.046,31486
101.467,34463
101.887,31821
102.308,32355
102.729,31024
103.149,31424
103.57,31968
103.991,31576
104.411,31477
104.832,31344
105.253,31778
105.673,31628
106.094,31455
106.514,32166
106.935,32281
107.356,31299
107.776,31185
108.197,32169
108.618,31771
109.038,31442
109.459,32138
109.879,32040
110.3,32258
110.721,31409
111.141,32050
111.562,32539
111.983,32678
112.403,32690
112.824,32960
113.244,32991
113.665,32419
114.086,32659
114.506,32617
114.927,31680
115.348,32914
115.768,32827
116.189,32500
116.609,32536
117.03,31959
117.451,32863
117.871,32709
118.292,32651
118.713,33399
119.133,32379
119.554,32577
119.974,33726
120.395,32696
120.816,32461
121.236,31590
121.657,32473
122.078,31812
122.498,32017
122.919,33459
123.339,32794
123.76,32041
124.181,33072
124.601,32618
124.987,33409