Folder: Al-DWTR-Characterization-data/XRD/DWTR_NC/Lab Source

Note: README.md
# Al-DWTR-Characterization

The Diversity of Aluminum-Based DrinkingWater Treatment Residuals for Use in Environmental Remediation 

Wallace et al. (2023) 

# Citation for the use of these data

Samuel M. Wallace(a), Yuchi Zhang(a), Lang Zhou(b), Qing Ma(c), William E. Guise(c), Nancy D. Denslow(d), Jean-Claude Bonzongo(b), and Jean-Fran√ßois Gaillard(a)(2023) *Environmental Science: Water Research & Technology* - in revision - 

a) Department of Civil and Environmental Engineering, Northwestern University, 2145
Sheridan Road, Evanston, IL 60208, USA. E-mail: jf-gaillard@northwestern.edu

b) Engineering School of Sustainable Infrastructure and Environment, Department of
Environmental Engineering Sciences, University of Florida, PO Box 116450, Gainesville,
FL 32611, USA.

c) DND-CAT Synchrotron Research Center, Northwestern University, 9700 South Cass
Avenue, Argonne, IL 60439, USA.

d) Departments of Physiological Sciences and of Biochemistry and Molecular Biology and
Center for Environmental and Human Toxicology, University of Florida, University of
Florida, Gainesville, FL 32610, USA.

File: DWTR_NC_Fine.txt
10,1253
10.2,1264
10.4,1306
10.6,1273
10.8,1216
11,1214
11.2,1270
11.4,1261
11.6,1248
11.8,1239
12,1135
12.2,1139
12.4,1140
12.6,1165
12.8,1051
13,1124
13.2,1046
13.4,1088
13.6,1047
13.8,1058
14,1020
14.2,1032
14.4,982
14.6,1098
14.8,1009
15,1018
15.2,969
15.4,890
15.6,971
15.8,940
16,954
16.2,899
16.4,918
16.6,919
16.8,885
17,852
17.2,846
17.4,861
17.6,841
17.8,835
18,879
18.2,801
18.4,849
18.6,778
18.8,795
19,762
19.2,812
19.4,747
19.6,712
19.8,718
20,723
20.2,694
20.4,727
20.6,686
20.8,751
21,644
21.2,674
21.4,673
21.6,713
21.8,616
22,681
22.2,697
22.4,679
22.6,623
22.8,759
23,1974
23.2,710
23.4,613
23.6,620
23.8,603
24,641
24.2,576
24.4,573
24.6,603
24.8,587
25,544
25.2,578
25.4,577
25.6,526
25.8,517
26,556
26.2,535
26.4,542
26.6,652
26.8,502
27,485
27.2,443
27.4,487
27.6,550
27.8,507
28,467
28.2,476
28.4,538
28.6,594
28.8,546
29,725
29.2,2288
29.4,19200
29.6,1019
29.8,661
30,546
30.2,529
30.4,509
30.6,537
30.8,486
31,487
31.2,515
31.4,891
31.6,475
31.8,454
32,444
32.2,407
32.4,448
32.6,423
32.8,452
33,404
33.2,427
33.4,443
33.6,417
33.8,413
34,394
34.2,429
34.4,384
34.6,422
34.8,412
35,432
35.2,419
35.4,369
35.6,443
35.8,606
36,2628
36.2,464
36.4,380
36.6,375
36.8,376
37,315
37.2,353
37.4,340
37.6,348
37.8,339
38,346
38.2,329
38.4,363
38.6,335
38.8,373
39,348
39.2,601
39.4,4323
39.6,543
39.8,366
40,319
40.2,290
40.4,317
40.6,322
40.8,318
41,319
41.2,310
41.4,321
41.6,289
41.8,344
42,320
42.2,288
42.4,290
42.6,339
42.8,330
43,531
43.2,2221
43.4,448
43.6,333
43.8,291
44,320
44.2,310
44.4,293
44.6,298
44.8,272
45,293
45.2,306
45.4,294
45.6,296
45.8,290
46,272
46.2,318
46.4,291
46.6,301
46.8,324
47,648
47.2,1098
47.4,2383
47.6,1716
47.8,396
48,328
48.2,380
48.4,1703
48.6,2173
48.8,354
49,302
49.2,305
49.4,256
49.6,260
49.8,273
50,244
50.2,254
50.4,286
50.6,249
50.8,245
51,253
51.2,267
51.4,253
51.6,248
51.8,237
52,261
52.2,262
52.4,245
52.6,227
52.8,210
53,239
53.2,214
53.4,229
53.6,230
53.8,220
54,213
54.2,238
54.4,217
54.6,222
54.8,229
55,217
55.2,220
55.4,220
55.6,233
55.8,241
56,235
56.2,235
56.4,274
56.6,657
56.8,294
57,269
57.2,332
57.4,1799
57.6,732
57.8,270
58,375
58.2,289
58.4,256
58.6,187
58.8,219
59,239
59.2,221
59.4,180
59.6,215
59.8,242
60,242