Folder: Al-DWTR-Characterization-data/XRD/DWTR_OR/Lab Source

Note: README.md
# Al-DWTR-Characterization

The Diversity of Aluminum-Based DrinkingWater Treatment Residuals for Use in Environmental Remediation 

Wallace et al. (2023) 

# Citation for the use of these data

Samuel M. Wallace(a), Yuchi Zhang(a), Lang Zhou(b), Qing Ma(c), William E. Guise(c), Nancy D. Denslow(d), Jean-Claude Bonzongo(b), and Jean-Fran√ßois Gaillard(a)(2023) *Environmental Science: Water Research & Technology* - in revision - 

a) Department of Civil and Environmental Engineering, Northwestern University, 2145
Sheridan Road, Evanston, IL 60208, USA. E-mail: jf-gaillard@northwestern.edu

b) Engineering School of Sustainable Infrastructure and Environment, Department of
Environmental Engineering Sciences, University of Florida, PO Box 116450, Gainesville,
FL 32611, USA.

c) DND-CAT Synchrotron Research Center, Northwestern University, 9700 South Cass
Avenue, Argonne, IL 60439, USA.

d) Departments of Physiological Sciences and of Biochemistry and Molecular Biology and
Center for Environmental and Human Toxicology, University of Florida, University of
Florida, Gainesville, FL 32610, USA.

File: DWTR_OR_Fine.txt
10,1715
10.2,1784
10.4,1707
10.6,1693
10.8,1719
11,1718
11.2,1732
11.4,1727
11.6,1682
11.8,1673
12,1704
12.2,1694
12.4,1634
12.6,1730
12.8,1579
13,1546
13.2,1545
13.4,1587
13.6,1647
13.8,1620
14,1608
14.2,1515
14.4,1556
14.6,1547
14.8,1520
15,1533
15.2,1567
15.4,1545
15.6,1489
15.8,1477
16,1557
16.2,1484
16.4,1568
16.6,1526
16.8,1554
17,1550
17.2,1458
17.4,1529
17.6,1527
17.8,1518
18,1536
18.2,1516
18.4,1400
18.6,1455
18.8,1498
19,1481
19.2,1658
19.4,1669
19.6,1980
19.8,1979
20,1964
20.2,1766
20.4,1716
20.6,1763
20.8,1887
21,1745
21.2,1733
21.4,1670
21.6,1661
21.8,1900
22,1662
22.2,1626
22.4,1646
22.6,1615
22.8,1521
23,1512
23.2,1568
23.4,1692
23.6,1624
23.8,1568
24,1619
24.2,1678
24.4,1588
24.6,1590
24.8,1547
25,1632
25.2,1666
25.4,1523
25.6,1540
25.8,1505
26,1525
26.2,1627
26.4,2466
26.6,2170
26.8,1512
27,1447
27.2,1474
27.4,1605
27.6,1775
27.8,1776
28,1468
28.2,1358
28.4,1393
28.6,1353
28.8,1257
29,1245
29.2,1281
29.4,1261
29.6,1387
29.8,1296
30,1332
30.2,1287
30.4,1339
30.6,1256
30.8,1187
31,1234
31.2,1255
31.4,1187
31.6,1231
31.8,1203
32,1152
32.2,1119
32.4,1148
32.6,1212
32.8,1207
33,1129
33.2,1203
33.4,1179
33.6,1100
33.8,1225
34,1244
34.2,1357
34.4,1358
34.6,1343
34.8,1438
35,1365
35.2,1450
35.4,1522
35.6,1349
35.8,1318
36,1310
36.2,1228
36.4,1361
36.6,1314
36.8,1207
37,1268
37.2,1270
37.4,1332
37.6,1290
37.8,1308
38,1234
38.2,1285
38.4,1173
38.6,1185
38.8,1195
39,1194
39.2,1218
39.4,1225
39.6,1157
39.8,1169
40,1154
40.2,1154
40.4,1119
40.6,1134
40.8,1161
41,1080
41.2,1142
41.4,1113
41.6,1105
41.8,1159
42,1076
42.2,1116
42.4,1142
42.6,1140
42.8,1078
43,1021
43.2,1111
43.4,1026
43.6,1039
43.8,1058
44,1100
44.2,1049
44.4,1019
44.6,1051
44.8,1013
45,1004
45.2,1127
45.4,1004
45.6,1076
45.8,1088
46,1018
46.2,1055
46.4,985
46.6,920
46.8,1017
47,996
47.2,941
47.4,1071
47.6,1010
47.8,993
48,986
48.2,972
48.4,935
48.6,989
48.8,1010
49,1003
49.2,998
49.4,982
49.6,1003
49.8,1041
50,1163
50.2,1069
50.4,982
50.6,1009
50.8,991
51,982
51.2,969
51.4,980
51.6,950
51.8,970
52,958
52.2,942
52.4,960
52.6,941
52.8,1005
53,991
53.2,996
53.4,997
53.6,1028
53.8,1012
54,978
54.2,1023
54.4,1039
54.6,1023
54.8,1044
55,1035
55.2,1051
55.4,967
55.6,966
55.8,965
56,974
56.2,949
56.4,1054
56.6,987
56.8,960
57,955
57.2,997
57.4,958
57.6,869
57.8,992
58,966
58.2,913
58.4,1013
58.6,951
58.8,988
59,897
59.2,958
59.4,913
59.6,973
59.8,1081
60,987