Folder: Al-DWTR-Characterization-data/XRD/DWTR_FL/APS_XRD_Gaillard

Note: README.md
# Al-DWTR-Characterization

The Diversity of Aluminum-Based DrinkingWater Treatment Residuals for Use in Environmental Remediation 

Wallace et al. (2023) 

# Citation for the use of these data

Samuel M. Wallace(a), Yuchi Zhang(a), Lang Zhou(b), Qing Ma(c), William E. Guise(c), Nancy D. Denslow(d), Jean-Claude Bonzongo(b), and Jean-Fran√ßois Gaillard(a)(2023) *Environmental Science: Water Research & Technology* - in revision - 

a) Department of Civil and Environmental Engineering, Northwestern University, 2145
Sheridan Road, Evanston, IL 60208, USA. E-mail: jf-gaillard@northwestern.edu

b) Engineering School of Sustainable Infrastructure and Environment, Department of
Environmental Engineering Sciences, University of Florida, PO Box 116450, Gainesville,
FL 32611, USA.

c) DND-CAT Synchrotron Research Center, Northwestern University, 9700 South Cass
Avenue, Argonne, IL 60439, USA.

d) Departments of Physiological Sciences and of Biochemistry and Molecular Biology and
Center for Environmental and Human Toxicology, University of Florida, University of
Florida, Gainesville, FL 32610, USA.

File: dwtr_fine_001_truncated.txt
     35     39     38     36     44     41     43     33     37     36
     52     33     38     39     48     40     45     45     38     40
     40     48     38     38     43     42     31     44     47     41
     49     57     39     32     54     49     40     42     50     41
     45     53     48     31     53     52     46     50     51     50
     50     45     45     48     55     42     46     46     26     50
     43     46     41     50     39     29     50     34     47     51
     35     37     40     41     44     33     52     48     40     44
     34     34     33     36     33     36     26     35     47     51
     48     42     40     47     36     52     39     48     36     49
     45     45     44     38     45     40     40     41     41     43
     38     37     42     36     33     43     46     41     48     39
     41     55     38     52     47     64     55     51     41     46
     66     52     51     43     47     52     40     62     56     58
     51     43     44     38     50     47     45     39     56     39
     40     37     32     30     31     36     50     39     34     38
     38     39     39     28     41     41     32     32     41     44
     50     38     41     17     39     34     29     30     34     38
     49     35     38     33     40     29     34     33     39     30
     32     31     26     35     46     41     35     49     44     30
     24     46     39     36     40     31     44     31     35     29
     32     36     39     30     28     30     24     34     20     33
     33     30     27     38     37     32     33     39     36     32
     30     31     24     30     27     36     35     20     29     29
     28     26     34     23     36     38     25     32     29     33
     25     33     29     40     32     36     22     33     34     32
     26     19     35     34     43     31     28     29     23     32
     33     36     31     36     25     38     32     29     32     35
     91    129    197    193    253    386    424    586    754    809
     26     26     30     36     28     31     36     31     29     23
     28     30     29     33     28     25     35     27     29     35
     31     33     27     31     29     36     25     30     26     28
     30     37     21     36     38     38     40     36     34     24
     31     31     32     29     34     25     27     32     33     31
     24     27     36     30     31     30     36     38     39     33
     32     31     37     28     39     22     39     40     30     25
     49     33     29     29     15     27     34     31     32     37
     47     49     49     57     53     59     65     74     85     79
     26     37     30     30     32     30     40     33     35     22
     29     31     24     22     28     35     31     35     32     34
     32     32     25     33     23     35     29     15     26     35
     20     23     23     22     30     29     35     17     29     26
     18     31     32     42     29     36     27     38     37     30
     31     33     22     26     27     22     24     36     26     23
     34     28     25     35     25     36     28     29     27     31
     16     25     27     29     32     27     36     27     33     29
     27     42     28     27     23     19     27     21     26     29
     18     22     28     17     26     22     27     32     34     25
     29     25     21     23     27     30     24     27     33     35
     27     28     34     26     24     28     28     25     16     21
     14     28     21     36     23     25     24     22     29     28
     26     21     36     23     18     21     32     24     21     23
     28     26     31     25     30     27     16     28     23     28
     25     22     28     22     22     23     28     23     25     22
     22     24     19     25     18     24     24     23     22     16
     25     26     28     26     29     21     20     28     32     19
     24     23     32     27     26     27     23     25     28     25
     18     34     27     26     26     24     17     29     22     21
     32     16     16     25     16     18     28     17     21     25
     28     27     26     28     16     30     31     22     27     22
     33     14     21     25     22     21     22     29     16     24
     11     21     22     25     26     19     31     20     24     26
     39     28     21     20     17     23     28     28     21     29
     33     40     32     24     23     33     34     45     28     36
     18     22     18     22     24     24     26     23     15     42
     26     20     25     29     20     20     25     25     28     32
     25     26     27     24     16     24     26     27     21     30
     17     29     23     25     22     22     24     15     26     23
     18     23     23     26     23     33     29     24     20     25
     26     30     24     26     25     26     24     24     20     29
     23     27     30     19     24     20     13     38     21     22
     23     31     23     24     32     24     30     37     36     35
     20     22     20     23     41     22     17     22     25     23
     23     21     24     25     16     25     28     26     15     21
     37     16     26     27     28     29     18     41     23     27
     22     28     24     22     20     27     30     29     30     24
     21     16     24     23     24     19     34     23     25     22
     32     28     15     28     18     29     28     27     22     18
     28     25     30     24     19     27     11     25     24     14
     23     24     17     19     22     22     26     13     23     16
     21     21     17     22     15     18     19     21     15     21
     20     22     22     28     22     24     29     19     23     25
     25     28     19     20     21     25     19     25     26     29
     22     19     12     19     19     16     24     19     18     16
     17     23     17     23     20     31     20     28     16     19
     21     20     21     26     28     24     19     17     24     19
     18     26     22     19     14     19     23     21     17     14
     80     97    131    137    163    145    168    141    180    126
     23     25     20     20     18     19     21     14     23     20
     18     14     22     12     20     20     14     29     19     15
     21     33     39     26     36     40     44     39     41     41
     29     21     22     26     19     27     15     16     21     22
     37     40     38     30     35     31     28     33     25     28
     18     18     17     24     17     15     20     19     30     22
     18     18     17     34     21     15     18     22     22     17
     16     13     22     17     25     31     18     19     22     19
     17     18     14     22     23     11     16     22     23     15
     17     16     15     29     14     12     11     14     18     23
     19     17     15     11     21     22     17     25     18     19
     13     19     23     19     23     22     22     20     12     24
     15     20     18     16     18      9      9      6     20     24
     14     18     15     15     13     11     14     16     11     13
     12     21     19     19     23     11     15     16     20     10
     17     11     16     16     13     19     12     15     17     10
     23     15     17     14     20     11     20     12     17     16
     14     17     16     16     12     15     15     14     18     10
     17     13     16     11     25     22     14     16     24     18
     12     18     20     27     25      8     16     16     16     12
     10     12     16     20     24     13     19     11     20      8
     22     27     10     22     19     21     11     10     18     17
     19     20     20     14     10      9     20     15     18     10
     19     21     11     10     10     24     15     15     22     21
     16      8     12     19     11     12     17     22     15     17
     16     14      7     15     15     15     11     12     20     20
     15     12     16     20      9     13     15     15     15     10
      9     22     11     24     11     18     13     17     12     19
     18     19     15     16     17     24     20     12     19     28
     15     10     10      8     17     17     14     14     16     19
     16     17     14     14      9     13     16     19     11     18
     17     17     16     15     17      7     17     13     11     13
     14     13      9     11     16     15     16     15     15     13
     17     14     11     12     17     15     16     11     13     14
     10     11     15     21     18     20      7     20     11      7
     20     13     18     16     19     14     15     13     21     18
     15     10     11     18      8     19     14     11     22     18
      6     12     10     10     14     17     13     10     10     20
     16     18     13     11     10     15     10     18     13     18
     17     15     18     17     13      9     16     19     17     13
     49     43     46     37     29     25     27     27     22     27
     10     13     14     10     11     16     17      5     17     12
     10     14     13     12     13     12     14      8     21     13
     14     18     13     15     18      9     17      9      9     14
     21      8     13     13     18     14     13     17     13     14
     23     23     14     18     18     10     16     13     12      6
     17      9     14     14     15     13      7     13     12     11
     20     10     14     10     18     19     17     16     10     13
     13