Folder: Al-DWTR-Characterization-data/XRD/DWTR_TN/Lab Source

Note: README.md
# Al-DWTR-Characterization

The Diversity of Aluminum-Based DrinkingWater Treatment Residuals for Use in Environmental Remediation 

Wallace et al. (2023) 

# Citation for the use of these data

Samuel M. Wallace(a), Yuchi Zhang(a), Lang Zhou(b), Qing Ma(c), William E. Guise(c), Nancy D. Denslow(d), Jean-Claude Bonzongo(b), and Jean-Fran√ßois Gaillard(a)(2023) *Environmental Science: Water Research & Technology* - in revision - 

a) Department of Civil and Environmental Engineering, Northwestern University, 2145
Sheridan Road, Evanston, IL 60208, USA. E-mail: jf-gaillard@northwestern.edu

b) Engineering School of Sustainable Infrastructure and Environment, Department of
Environmental Engineering Sciences, University of Florida, PO Box 116450, Gainesville,
FL 32611, USA.

c) DND-CAT Synchrotron Research Center, Northwestern University, 9700 South Cass
Avenue, Argonne, IL 60439, USA.

d) Departments of Physiological Sciences and of Biochemistry and Molecular Biology and
Center for Environmental and Human Toxicology, University of Florida, University of
Florida, Gainesville, FL 32610, USA.

File: DWTR_TN_Fine.txt
10,1215
10.2,1221
10.4,1167
10.6,1199
10.8,1177
11,1145
11.2,1127
11.4,1081
11.6,1086
11.8,1133
12,1085
12.2,1094
12.4,1118
12.6,1027
12.8,1095
13,1091
13.2,989
13.4,952
13.6,1004
13.8,1010
14,955
14.2,958
14.4,934
14.6,893
14.8,951
15,939
15.2,848
15.4,887
15.6,873
15.8,861
16,869
16.2,824
16.4,812
16.6,818
16.8,847
17,800
17.2,842
17.4,789
17.6,756
17.8,751
18,714
18.2,722
18.4,671
18.6,683
18.8,704
19,715
19.2,702
19.4,693
19.6,731
19.8,750
20,705
20.2,672
20.4,677
20.6,700
20.8,808
21,641
21.2,561
21.4,572
21.6,611
21.8,584
22,576
22.2,595
22.4,551
22.6,545
22.8,593
23,1519
23.2,874
23.4,562
23.6,540
23.8,463
24,503
24.2,514
24.4,504
24.6,497
24.8,485
25,430
25.2,454
25.4,485
25.6,486
25.8,460
26,473
26.2,467
26.4,517
26.6,1066
26.8,493
27,453
27.2,434
27.4,420
27.6,463
27.8,402
28,408
28.2,437
28.4,491
28.6,497
28.8,502
29,602
29.2,1594
29.4,18296
29.6,1959
29.8,653
30,513
30.2,426
30.4,406
30.6,377
30.8,404
31,350
31.2,385
31.4,625
31.6,475
31.8,376
32,355
32.2,331
32.4,372
32.6,329
32.8,320
33,324
33.2,320
33.4,321
33.6,306
33.8,294
34,302
34.2,293
34.4,288
34.6,322
34.8,331
35,356
35.2,308
35.4,299
35.6,326
35.8,518
36,2889
36.2,466
36.4,323
36.6,333
36.8,286
37,264
37.2,293
37.4,269
37.6,246
37.8,255
38,278
38.2,263
38.4,270
38.6,286
38.8,308
39,278
39.2,439
39.4,3025
39.6,1103
39.8,306
40,267
40.2,284
40.4,271
40.6,232
40.8,229
41,260
41.2,232
41.4,282
41.6,234
41.8,219
42,263
42.2,229
42.4,284
42.6,282
42.8,251
43,498
43.2,3357
43.4,527
43.6,312
43.8,247
44,253
44.2,238
44.4,208
44.6,226
44.8,232
45,215
45.2,204
45.4,211
45.6,245
45.8,223
46,213
46.2,221
46.4,256
46.6,226
46.8,279
47,455
47.2,1085
47.4,937
47.6,2501
47.8,470
48,274
48.2,341
48.4,839
48.6,2512
48.8,530
49,265
49.2,231
49.4,220
49.6,190
49.8,193
50,231
50.2,237
50.4,196
50.6,198
50.8,188
51,192
51.2,178
51.4,180
51.6,199
51.8,148
52,162
52.2,169
52.4,177
52.6,194
52.8,151
53,170
53.2,176
53.4,169
53.6,160
53.8,145
54,155
54.2,159
54.4,175
54.6,176
54.8,206
55,214
55.2,173
55.4,167
55.6,177
55.8,171
56,169
56.2,168
56.4,235
56.6,771
56.8,369
57,216
57.2,296
57.4,1345
57.6,1013
57.8,255
58,218
58.2,252
58.4,199
58.6,174
58.8,171
59,162
59.2,181
59.4,182
59.6,158
59.8,170
60,197