Folder: Al-DWTR-Characterization-data/XRD/DWTR_UT/Lab Source

Note: README.md
# Al-DWTR-Characterization

The Diversity of Aluminum-Based DrinkingWater Treatment Residuals for Use in Environmental Remediation 

Wallace et al. (2023) 

# Citation for the use of these data

Samuel M. Wallace(a), Yuchi Zhang(a), Lang Zhou(b), Qing Ma(c), William E. Guise(c), Nancy D. Denslow(d), Jean-Claude Bonzongo(b), and Jean-Fran√ßois Gaillard(a)(2023) *Environmental Science: Water Research & Technology* - in revision - 

a) Department of Civil and Environmental Engineering, Northwestern University, 2145
Sheridan Road, Evanston, IL 60208, USA. E-mail: jf-gaillard@northwestern.edu

b) Engineering School of Sustainable Infrastructure and Environment, Department of
Environmental Engineering Sciences, University of Florida, PO Box 116450, Gainesville,
FL 32611, USA.

c) DND-CAT Synchrotron Research Center, Northwestern University, 9700 South Cass
Avenue, Argonne, IL 60439, USA.

d) Departments of Physiological Sciences and of Biochemistry and Molecular Biology and
Center for Environmental and Human Toxicology, University of Florida, University of
Florida, Gainesville, FL 32610, USA.

File: DWTR_UT_Fine.txt
10,1720
10.2,1788
10.4,1835
10.6,1705
10.8,1661
11,1729
11.2,1759
11.4,1661
11.6,1686
11.8,1689
12,1721
12.2,1700
12.4,1731
12.6,1634
12.8,1642
13,1676
13.2,1611
13.4,1672
13.6,1615
13.8,1636
14,1568
14.2,1584
14.4,1604
14.6,1563
14.8,1641
15,1571
15.2,1528
15.4,1493
15.6,1490
15.8,1446
16,1469
16.2,1532
16.4,1512
16.6,1459
16.8,1505
17,1457
17.2,1507
17.4,1481
17.6,1516
17.8,1540
18,1519
18.2,1478
18.4,1503
18.6,1468
18.8,1437
19,1408
19.2,1421
19.4,1478
19.6,1602
19.8,1671
20,1560
20.2,1470
20.4,1513
20.6,1528
20.8,1766
21,1494
21.2,1389
21.4,1428
21.6,1409
21.8,1399
22,1366
22.2,1405
22.4,1354
22.6,1365
22.8,1426
23,1528
23.2,1442
23.4,1446
23.6,1453
23.8,1537
24,1447
24.2,1421
24.4,1323
24.6,1356
24.8,1380
25,1373
25.2,1372
25.4,1397
25.6,1358
25.8,1313
26,1334
26.2,1364
26.4,1490
26.6,2786
26.8,1369
27,1281
27.2,1252
27.4,1218
27.6,1220
27.8,1199
28,1177
28.2,1080
28.4,1155
28.6,1095
28.8,1084
29,1098
29.2,1270
29.4,3110
29.6,1337
29.8,1194
30,1077
30.2,1086
30.4,1126
30.6,1268
30.8,1598
31,1382
31.2,969
31.4,947
31.6,938
31.8,910
32,860
32.2,834
32.4,858
32.6,817
32.8,836
33,812
33.2,878
33.4,872
33.6,856
33.8,858
34,778
34.2,828
34.4,911
34.6,934
34.8,910
35,893
35.2,913
35.4,838
35.6,871
35.8,798
36,1114
36.2,851
36.4,922
36.6,931
36.8,885
37,931
37.2,947
37.4,901
37.6,854
37.8,881
38,784
38.2,861
38.4,754
38.6,798
38.8,776
39,781
39.2,809
39.4,1227
39.6,912
39.8,840
40,806
40.2,842
40.4,785
40.6,842
40.8,888
41,967
41.2,836
41.4,810
41.6,782
41.8,768
42,789
42.2,767
42.4,897
42.6,734
42.8,742
43,766
43.2,1028
43.4,779
43.6,722
43.8,792
44,787
44.2,791
44.4,807
44.6,790
44.8,894
45,788
45.2,753
45.4,756
45.6,739
45.8,722
46,702
46.2,682
46.4,685
46.6,653
46.8,684
47,689
47.2,700
47.4,830
47.6,828
47.8,683
48,713
48.2,668
48.4,804
48.6,949
48.8,739
49,641
49.2,667
49.4,659
49.6,604
49.8,624
50,713
50.2,763
50.4,657
50.6,704
50.8,618
51,732
51.2,650
51.4,555
51.6,601
51.8,557
52,510
52.2,549
52.4,525
52.6,552
52.8,508
53,540
53.2,561
53.4,594
53.6,517
53.8,598
54,583
54.2,544
54.4,570
54.6,596
54.8,582
55,559
55.2,574
55.4,558
55.6,567
55.8,590
56,518
56.2,504
56.4,561
56.6,541
56.8,533
57,524
57.2,546
57.4,560
57.6,585
57.8,479
58,510
58.2,533
58.4,492
58.6,515
58.8,517
59,540
59.2,519
59.4,498
59.6,529
59.8,614
60,552