Folder: Al-DWTR-Characterization-data/XRD/DWTR_IL/IDB data

Note: README.md
# Al-DWTR-Characterization

The Diversity of Aluminum-Based DrinkingWater Treatment Residuals for Use in Environmental Remediation 

Wallace et al. (2023) 

# Citation for the use of these data

Samuel M. Wallace(a), Yuchi Zhang(a), Lang Zhou(b), Qing Ma(c), William E. Guise(c), Nancy D. Denslow(d), Jean-Claude Bonzongo(b), and Jean-Fran√ßois Gaillard(a)(2023) *Environmental Science: Water Research & Technology* - in revision - 

a) Department of Civil and Environmental Engineering, Northwestern University, 2145
Sheridan Road, Evanston, IL 60208, USA. E-mail: jf-gaillard@northwestern.edu

b) Engineering School of Sustainable Infrastructure and Environment, Department of
Environmental Engineering Sciences, University of Florida, PO Box 116450, Gainesville,
FL 32611, USA.

c) DND-CAT Synchrotron Research Center, Northwestern University, 9700 South Cass
Avenue, Argonne, IL 60439, USA.

d) Departments of Physiological Sciences and of Biochemistry and Molecular Biology and
Center for Environmental and Human Toxicology, University of Florida, University of
Florida, Gainesville, FL 32610, USA.

File: IL_1.csv
twotheta, intensity, esd
5.0, 327.989, 17.9173
5.151, 317.615, 17.6157
5.302, 274.735, 16.3873
5.453, 261.988, 16.0016
5.604, 251.895, 15.7417
5.755, 239.451, 15.2963
5.906, 215.629, 14.5363
6.057, 218.937, 14.6269
6.208, 202.137, 14.0483
6.359, 202.613, 14.0813
6.51, 174.829, 13.0663
6.661, 199.424, 13.9613
6.812, 204.457, 14.1076
6.963, 186.957, 13.5266
7.114, 200.705, 14.0166
7.265, 213.058, 14.4287
7.416, 196.46, 13.856
7.567, 204.597, 14.1173
7.718, 223.152, 14.7771
7.869, 200.508, 14.0029
8.02, 239.156, 15.2775
8.171, 248.586, 15.5959
8.322, 242.255, 15.3816
8.473, 243.78, 15.4164
8.624, 251.515, 15.6569
8.775, 282.181, 16.5968
8.926, 282.739, 16.6296
9.077, 310.915, 17.4328
9.228, 314.264, 17.4837
9.379, 317.145, 17.5896
9.53, 334.494, 18.0847
9.681, 330.35, 17.966
9.832, 296.188, 16.9853
9.983, 317.493, 17.6089
10.134, 331.793, 17.9914
10.285, 333.41, 18.0525
10.436, 378.056, 19.1897
10.587, 4233.72, 64.3911
10.738, 363.743, 18.8562
10.889, 331.119, 17.9548
11.04, 372.557, 19.0836
11.191, 350.928, 18.4927
11.342, 285.264, 16.6917
11.493, 310.085, 17.3863
11.644, 317.75, 17.6231
11.795, 356.178, 18.6148
11.946, 331.482, 17.9745
12.097, 320.838, 17.6858
12.248, 369.754, 18.94
12.399, 341.718, 18.289
12.55, 354.087, 18.5563
12.701, 376.06, 19.0884
12.852, 304.565, 17.1037
13.003, 346.802, 18.1995
13.154, 329.121, 17.7166
13.305, 399.725, 19.5946
13.456, 32361.3, 175.942
13.607, 505.969, 22.0353
13.758, 393.291, 19.3726
13.909, 346.293, 18.1478
14.06, 368.876, 18.7479
14.211, 332.903, 17.8428
14.362, 492.067, 21.8272
14.513, 293.683, 16.8694
14.664, 304.031, 17.2101
14.815, 290.913, 16.8218
14.966, 261.921, 15.9678
15.117, 247.108, 15.5033
15.268, 284.273, 16.6053
15.419, 274.894, 16.3677
15.57, 282.79, 16.5754
15.721, 305.935, 17.2626
15.872, 303.901, 17.2027
16.023, 327.523, 17.8652
16.174, 305.533, 17.2125
16.325, 368.278, 18.9391
16.476, 387.157, 19.452
16.627, 358.068, 18.6373
16.778, 287.292, 16.7247
16.929, 249.722, 15.6059
17.08, 329.775, 17.9348
17.231, 386.25, 19.382
17.382, 515.629, 22.4348
17.533, 296.459, 17.0008
17.684, 280.187, 16.5369
17.835, 380.023, 19.24
17.986, 620.654, 24.5844
18.137, 280.66, 16.536
18.288, 324.787, 17.769
18.439, 248.559, 15.5637
18.59, 267.55, 16.1614
18.741, 253.931, 15.7464
18.892, 249.794, 15.6104
19.043, 241.942, 15.3617
19.194, 290.811, 16.8724
19.345, 249.293, 15.5488
19.496, 426.065, 20.3776
19.647, 345.849, 18.3529
19.798, 279.475, 16.5526
19.949, 362.971, 18.7909
20.1, 322.353, 17.7424
20.251, 259.605, 15.9156
20.402, 263.487, 16.0038
20.553, 241.409, 15.3279
20.704, 280.14, 16.5054
20.855, 235.476, 15.1668
21.006, 263.962, 16.0327
21.157, 299.192, 17.0735
21.308, 1322.81, 35.8618
21.459, 16156.2, 125.734
21.61, 327.279, 17.8519
21.761, 341.409, 18.2203
21.912, 3260.94, 56.4536
22.063, 267.715, 16.1126
22.214, 226.904, 14.8955
22.365, 198.905, 13.8909
22.516, 266.962, 16.1553
22.667, 229.97, 14.9683
22.818, 227.454, 14.8676
22.969, 209.288, 14.2061
23.12, 228.217, 14.7606
23.271, 187.895, 13.42
23.422, 180.234, 13.1439
23.573, 212.928, 14.2894
23.724, 201.49, 13.8699
23.875, 199.982, 13.7988
24.026, 183.126, 13.2149
24.177, 187.401, 13.4535
24.328, 212.223, 14.3722
24.479, 189.949, 13.6014
24.63, 204.073, 14.1147
24.781, 224.501, 14.8017
24.932, 186.434, 13.4536
25.083, 224.049, 14.7719
25.234, 289.562, 16.7999
25.385, 248.607, 15.5667
25.536, 290.981, 16.8257
25.687, 661.96, 25.3963
25.838, 225.209, 14.8162
25.989, 249.897, 15.5864
26.14, 221.266, 14.6845
26.291, 215.165, 14.4722
26.442, 236.959, 15.1993
26.593, 271.368, 16.2444
26.744, 293.835, 16.9061
26.895, 282.774, 16.603
27.046, 503.314, 22.1308
27.197, 322.382, 17.744
27.348, 317.473, 17.6078
27.499, 208.804, 14.3057
27.65, 203.374, 14.1002
27.801, 217.206, 14.5438
27.952, 1097.21, 32.7694
28.103, 207.015, 14.2165
28.254, 243.931, 15.4259
28.405, 276.933, 16.4021
28.556, 461.848, 21.2539
28.707, 264.397, 16.0591
28.858, 211.829, 14.3786
29.009, 1689.9, 40.6577
29.16, 229.842, 14.9599
29.311, 179.414, 13.2255
29.462, 201.481, 14.0027
29.613, 189.591, 13.6107
29.764, 219.633, 14.6407
29.915, 201.071, 14.008
30.066, 188.861, 13.5934
30.217, 207.951, 14.2472
30.368, 241.984, 15.3335
30.519, 212.742, 14.3744
30.67, 189.201, 13.5827
30.821, 882.449, 29.3221
30.972, 204.173, 14.088
31.123, 201.624, 14.0126
31.274, 200.617, 13.9764
31.425, 228.558, 14.9398
31.576, 168.856, 12.837
31.727, 186.483, 13.4923
31.878, 1367.83, 36.5741
32.029, 242.527, 15.3678
32.18, 389.135, 19.5022
32.331, 182.608, 13.3525
32.482, 206.388, 14.2071
32.633, 168.629, 12.8196
32.784, 153.43, 12.2442
32.935, 158.123, 12.3843
33.086, 196.823, 13.7121
33.237, 206.886, 14.0755
33.388, 230.46, 14.9057
33.539, 734.861, 26.665
33.69, 185.544, 13.3546
33.841, 183.775, 13.2964
33.992, 156.344, 12.2827
34.143, 158.551, 12.3051
34.294, 187.613, 13.3998
34.445, 192.608, 13.6183
34.596, 179.273, 13.2151
34.747, 178.302, 13.1794
34.898, 395.542, 19.6512
35.049, 372.582, 19.0598
35.2, 250.294, 15.6112
35.351, 287.832, 16.7846
35.502, 172.812, 12.9883
35.653, 179.035, 13.1976
35.804, 176.784, 13.1392
35.955, 1485.46, 38.0386
36.106, 177.582, 13.1622
36.257, 284.504, 16.6472
36.408, 160.559, 12.5367
36.559, 167.172, 12.783
36.71, 158.725, 12.4315
36.861, 204.519, 14.1456
37.012, 149.223, 12.0631
37.163, 157.427, 12.4062
37.314, 141.548, 11.7542
37.465, 136.071, 11.5407
37.616, 127.905, 11.1745
37.767, 135.452, 11.4882
37.918, 145.917, 11.9532
38.069, 135.534, 11.4951
38.22, 150.504, 12.1272
38.371, 127.109, 11.1476
38.522, 176.826, 13.1423
38.673, 142.968, 11.8314
38.824, 138.147, 11.6334
38.975, 155.861, 12.3597
39.126, 181.561, 13.3475
39.277, 163.346, 12.6392
39.428, 142.539, 11.7958
39.579, 150.376, 12.1168
39.73, 927.044, 30.1126
39.881, 542.022, 23.0228
40.032, 166.022, 12.7324
40.183, 289.656, 16.8337
40.334, 179.738, 13.2494
40.485, 154.89, 12.3215
40.636, 149.111, 12.0937
40.787, 154.083, 12.2573
40.938, 162.52, 12.6131
41.089, 169.418, 12.8796
41.24, 450.773, 21.0132
41.391, 152.763, 12.23
41.542, 157.908, 12.4056
41.693, 139.666, 11.6788
41.844, 156.242, 12.3512
41.995, 136.603, 11.6277
42.146, 203.009, 14.0749
42.297, 148.447, 12.0398
42.448, 187.976, 13.5649
42.599, 213.543, 14.4616
42.75, 321.893, 17.744
42.901, 156.459, 12.3299
43.052, 138.233, 11.5187
43.203, 199.842, 13.8887
43.354, 501.229, 21.9754
43.505, 141.816, 11.696
43.656, 178.925, 13.1184
43.807, 152.527, 12.0953
43.958, 152.822, 12.1187
44.109, 124.189, 10.9762
44.26, 186.836, 13.5179
44.411, 256.453, 15.8419
44.562, 224.097, 14.8397
44.713, 164.32, 12.7145
44.864, 113.931, 10.5777
45.015, 102.323, 10.0331
45.166, 131.487, 11.3581
45.317, 127.678, 11.1975
45.468, 112.616, 10.5469
45.619, 170.863, 12.9895
45.77, 202.52, 14.1089
45.921, 120.327, 10.8933
46.072, 126.763, 11.1603
46.223, 137.633, 11.6314
46.374, 139.533, 11.7086
46.525, 135.977, 11.5745
46.676, 223.62, 14.8408
46.827, 186.264, 13.5119
46.978, 234.915, 15.1938
47.129, 135.713, 11.552
47.28, 136.007, 11.577
47.431, 149.792, 12.1489
47.582, 117.604, 10.7352
47.733, 122.043, 10.9592
47.884, 113.964, 10.5808
48.035, 112.365, 10.5234
48.186, 119.49, 10.8621
48.337, 107.403, 10.2869
48.488, 101.805, 10.0307
48.639, 122.472, 10.9977
48.79, 129.728, 11.3337
48.941, 142.009, 11.8333
49.092, 192.602, 13.7913
49.243, 138.624, 11.7151
49.394, 123.954, 11.0862
49.545, 111.887, 10.5249
49.696, 204.927, 14.2421
49.847, 112.733, 10.5579
49.998, 124.812, 11.1185
50.0, 108.919, 10.3846

File: IL_11.csv
twotheta, intensity, esd
25.0, 389.672, 19.5296
25.151, 373.321, 19.0981
25.302, 892.048, 29.5288
25.453, 444.839, 20.8509
25.604, 595.433, 24.2024
25.755, 748.914, 27.0517
25.906, 386.211, 19.4542
26.057, 461.402, 21.234
26.208, 418.003, 20.2018
26.359, 415.069, 20.1544
26.51, 445.454, 20.8568
26.661, 483.01, 21.7277
26.812, 531.705, 22.7503
26.963, 549.26, 23.185
27.114, 631.676, 24.8663
27.265, 545.472, 23.0869
27.416, 489.779, 21.8777
27.567, 414.12, 20.0846
27.718, 358.243, 18.7231
27.869, 371.712, 19.0658
28.02, 1874.5, 42.7714
28.171, 386.608, 19.4495
28.322, 407.378, 19.9463
28.473, 505.196, 22.1928
28.624, 1355.17, 36.343
28.775, 445.279, 20.8486
28.926, 407.99, 19.9763
29.077, 2422.62, 48.6621
29.228, 382.375, 19.2855
29.379, 321.036, 17.6971
29.53, 332.523, 18.0313
29.681, 307.852, 17.3435
29.832, 394.606, 19.6052
29.983, 357.542, 18.6865
30.134, 343.491, 18.3058
30.285, 342.197, 18.2888
30.436, 525.219, 22.6183
30.587, 370.29, 19.043
30.738, 340.254, 18.2372
30.889, 1529.34, 38.587
31.04, 336.352, 18.1326
31.191, 381.138, 19.2722
31.342, 329.224, 17.9318
31.493, 335.431, 18.0829
31.644, 308.936, 17.377
31.795, 374.656, 19.0915
31.946, 1534.92, 38.6784
32.097, 353.988, 18.5771
32.248, 516.33, 22.3814
32.399, 312.323, 17.4847
32.55, 318.072, 17.5873
32.701, 329.509, 17.8679
32.852, 295.904, 16.8588
33.003, 336.275, 17.9212
33.154, 391.131, 19.3137
33.305, 366.065, 18.7515
33.456, 405.71, 19.7
33.607, 705.729, 26.0242
33.758, 317.843, 17.4156
33.909, 287.282, 16.5294
34.06, 300.217, 16.9134
34.211, 308.969, 17.1894
34.362, 311.838, 17.376
34.513, 335.358, 18.0267
34.664, 277.705, 16.4481
34.815, 306.473, 17.2658
34.966, 573.616, 23.6303
35.117, 570.221, 23.5505
35.268, 323.079, 17.7024
35.419, 426.021, 20.3761
35.57, 324.576, 17.7578
35.721, 294.229, 16.9291
35.872, 362.345, 18.7842
36.023, 1136.25, 33.2756
36.174, 313.281, 17.4294
36.325, 593.409, 24.0408
36.476, 306.954, 17.3204
36.627, 284.29, 16.6066
36.778, 263.905, 16.0295
36.929, 395.099, 19.6297
37.08, 259.502, 15.9095
37.231, 274.327, 16.3342
37.382, 263.606, 16.041
37.533, 250.606, 15.6309
37.684, 267.484, 16.1576
37.835, 239.67, 15.2794
37.986, 257.134, 15.824
38.137, 250.436, 15.6203
38.288, 279.062, 16.4708
38.439, 286.573, 16.7115
38.59, 262.657, 16.0129
38.741, 249.039, 15.594
38.892, 267.352, 16.1497
39.043, 275.11, 16.3808
39.194, 348.583, 18.4724
39.345, 280.331, 16.4883
39.496, 231.023, 15.0052
39.647, 296.139, 16.9828
39.798, 1216.77, 34.5382
39.949, 436.932, 20.6167
40.1, 263.721, 16.048
40.251, 583.746, 23.8659
40.402, 311.129, 17.3906
40.553, 269.636, 16.1992
40.704, 307.371, 17.289
40.855, 293.127, 16.9218
41.006, 252.263, 15.6734
41.157, 383.015, 19.3177
41.308, 433.756, 20.5356
41.459, 255.441, 15.8099
41.61, 269.787, 16.2083
41.761, 264.541, 16.0385
41.912, 271.753, 16.297
42.063, 261.885, 15.9362
42.214, 364.834, 18.8878
42.365, 341.563, 18.203
42.516, 285.535, 16.7079
42.667, 282.593, 16.5927
42.818, 455.946, 21.05
42.969, 262.337, 15.9049
43.12, 249.221, 15.4249
43.271, 385.426, 19.2205
43.422, 588.808, 23.757
43.573, 267.603, 16.0193
43.724, 310.37, 17.2142
43.875, 270.46, 16.0471
44.026, 254.667, 15.5838
44.177, 239.568, 15.2112
44.328, 284.27, 16.6339
44.479, 315.63, 17.5329
44.63, 353.496, 18.5769
44.781, 224.494, 14.8015
44.932, 218.477, 14.5639
45.083, 222.094, 14.7073
45.234, 269.074, 16.1947
45.385, 239.823, 15.2892
45.536, 198.508, 13.8973
45.687, 288.465, 16.7649
45.838, 247.63, 15.5362
45.989, 201.265, 13.9878
46.14, 229.058, 14.9408
46.291, 235.607, 15.144
46.442, 229.149, 14.9468
46.593, 256.767, 15.8014
46.744, 249.061, 15.5649
46.895, 306.17, 17.2762
47.046, 381.563, 19.2691
47.197, 245.181, 15.4743
47.348, 253.956, 15.7482
47.499, 251.939, 15.714
47.65, 215.103, 14.5011
47.801, 187.976, 13.5299
47.952, 224.16, 14.8117
48.103, 231.425, 15.0314
48.254, 208.793, 14.2716
48.405, 222.501, 14.702
48.556, 253.374, 15.7424
48.707, 223.405, 14.7618
48.858, 251.853, 15.6782
49.009, 246.55, 15.5298
49.16, 274.643, 16.3531
49.311, 260.354, 15.9319
49.462, 209.264, 14.2705
49.613, 199.36, 13.957
49.764, 288.946, 16.7928
49.915, 222.543, 14.737
50.066, 216.259, 14.546
50.217, 226.497, 14.869
50.368, 269.192, 16.1725
50.519, 217.594, 14.5374
50.67, 236.017, 15.1704
50.821, 211.461, 14.3538
50.972, 233.339, 15.0606
51.123, 231.818, 15.0252
51.274, 223.014, 14.7359
51.425, 202.176, 14.0511
51.576, 233.282, 15.0884
51.727, 217.726, 14.5788
51.878, 199.53, 13.9689
52.029, 238.622, 15.2436
52.18, 211.15, 14.3658
52.331, 212.88, 14.4169
52.482, 215.187, 14.5068
52.633, 219.318, 14.62
52.784, 253.125, 15.7269
52.935, 239.62, 15.2453
53.086, 251.288, 15.4936
53.237, 246.157, 15.3534
53.388, 250.706, 15.5466
53.539, 231.288, 14.9595
53.69, 227.846, 14.7989
53.841, 269.419, 16.0992
53.992, 260.588, 15.8573
54.143, 221.596, 14.5473
54.294, 206.755, 14.0668
54.445, 216.683, 14.4443
54.596, 266.972, 16.1268
54.747, 207.532, 14.2187
54.898, 244.121, 15.4382
55.049, 214.54, 14.4631
55.2, 247.364, 15.5195
55.351, 209.49, 14.3193
55.502, 233.35, 15.0928
55.653, 257.858, 15.8386
55.804, 199.247, 13.949
55.955, 224.073, 14.7737
56.106, 224.42, 14.7965
56.257, 222.128, 14.7096
56.408, 214.41, 14.4873
56.559, 208.234, 14.2669
56.71, 205.47, 14.144
56.861, 187.876, 13.5578
57.012, 212.624, 14.3996
57.163, 188.718, 13.5833
57.314, 209.888, 14.3131
57.465, 212.437, 14.42
57.616, 193.328, 13.7382
57.767, 206.596, 14.188
57.918, 194.885, 13.8141
58.069, 209.647, 14.2967
58.22, 196.44, 13.8548
58.371, 217.074, 14.5679
58.522, 179.753, 13.2507
58.673, 208.584, 14.2908
58.824, 216.537, 14.5647
58.975, 196.053, 13.8621
59.126, 201.187, 14.0505
59.277, 199.537, 13.9694
59.428, 201.122, 14.0117
59.579, 187.483, 13.5295
59.73, 200.546, 14.0057
59.881, 208.328, 14.2733
60.032, 198.251, 13.9134
60.183, 181.992, 13.3434
60.334, 180.711, 13.2852
60.485, 180.378, 13.2967
60.636, 183.447, 13.414
60.787, 198.945, 13.9279
60.938, 184.057, 13.4228
61.089, 232.098, 15.0751
61.24, 207.698, 14.2636
61.391, 226.215, 14.8826
61.542, 193, 13.7149
61.693, 209.995, 14.3204
61.844, 177.725, 13.173
61.995, 220.752, 14.7814
62.146, 191.291, 13.6626
62.297, 174.816, 13.0655
62.448, 190.909, 13.6703
62.599, 171.412, 12.9567
62.75, 200.545, 14.0056
62.901, 208.94, 14.2485
63.052, 202.555, 13.9434
63.203, 176.664, 13.0585
63.354, 166.701, 12.6733
63.505, 169.794, 12.7979
63.656, 188.541, 13.4663
63.807, 188.981, 13.4634
63.958, 201.844, 13.9275
64.109, 163, 12.5749
64.26, 187.81, 13.553
64.411, 173.236, 13.0204
64.562, 186.737, 13.5464
64.713, 171.204, 12.9781
64.864, 168.936, 12.8805
65.015, 187.93, 13.5972
65.166, 174.665, 13.0908
65.317, 175.806, 13.1395
65.468, 164.976, 12.7654
65.619, 181.724, 13.396
65.77, 168.102, 12.8543
65.921, 158.794, 12.514
66.072, 163.124, 12.6601
66.223, 196.624, 13.9024
66.374, 181.789, 13.3645
66.525, 172.437, 13.0342
66.676, 158.591, 12.498
66.827, 180.377, 13.2967
66.978, 139.559, 11.7109
67.129, 184.888, 13.4834
67.28, 175.432, 13.1483
67.431, 154.717, 12.347
67.582, 169.55, 12.8898
67.733, 206.695, 14.2622
67.884, 161.125, 12.581
68.035, 181.368, 13.3697
68.186, 161.956, 12.6458
68.337, 158.645, 12.5022
68.488, 157.16, 12.4628
68.639, 153.091, 12.2959
68.79, 157.457, 12.4864
68.941, 135.102, 11.542
69.092, 179.756, 13.3235
69.243, 197.049, 13.9674
69.394, 148.746, 12.1444
69.545, 162.388, 12.6796
69.696, 149.478, 12.1636
69.847, 167.126, 12.8551
69.998, 154.53, 12.3716
70.0, 178.239, 13.2842