Folder: Al-DWTR-Characterization-data/XRD/DWTR_ME

Note: README.md
# Al-DWTR-Characterization

The Diversity of Aluminum-Based DrinkingWater Treatment Residuals for Use in Environmental Remediation 

Wallace et al. (2023) 

# Citation for the use of these data

Samuel M. Wallace(a), Yuchi Zhang(a), Lang Zhou(b), Qing Ma(c), William E. Guise(c), Nancy D. Denslow(d), Jean-Claude Bonzongo(b), and Jean-Fran√ßois Gaillard(a)(2023) *Environmental Science: Water Research & Technology* - in revision - 

a) Department of Civil and Environmental Engineering, Northwestern University, 2145
Sheridan Road, Evanston, IL 60208, USA. E-mail: jf-gaillard@northwestern.edu

b) Engineering School of Sustainable Infrastructure and Environment, Department of
Environmental Engineering Sciences, University of Florida, PO Box 116450, Gainesville,
FL 32611, USA.

c) DND-CAT Synchrotron Research Center, Northwestern University, 9700 South Cass
Avenue, Argonne, IL 60439, USA.

d) Departments of Physiological Sciences and of Biochemistry and Molecular Biology and
Center for Environmental and Human Toxicology, University of Florida, University of
Florida, Gainesville, FL 32610, USA.

File: DWTR_ME.txt
10,1698
10.2,1736
10.4,1655
10.6,1707
10.8,1752
11,1782
11.2,1653
11.4,1729
11.6,1782
11.8,1771
12,1747
12.2,1694
12.4,1755
12.6,1777
12.8,1697
13,1738
13.2,1832
13.4,1817
13.6,1744
13.8,1737
14,1624
14.2,1708
14.4,1673
14.6,1607
14.8,1599
15,1632
15.2,1574
15.4,1581
15.6,1527
15.8,1541
16,1545
16.2,1495
16.4,1494
16.6,1444
16.8,1496
17,1442
17.2,1467
17.4,1406
17.6,1413
17.8,1489
18,1494
18.2,1444
18.4,1469
18.6,1389
18.8,1441
19,1370
19.2,1468
19.4,1434
19.6,1407
19.8,1423
20,1505
20.2,1464
20.4,1669
20.6,1471
20.8,1432
21,1395
21.2,1400
21.4,1494
21.6,1432
21.8,1453
22,1428
22.2,1439
22.4,1396
22.6,1410
22.8,1383
23,1436
23.2,1421
23.4,1529
23.6,1459
23.8,1431
24,1443
24.2,1432
24.4,1311
24.6,1408
24.8,1427
25,1446
25.2,1485
25.4,1402
25.6,1359
25.8,1512
26,1595
26.2,2433
26.4,2395
26.6,1426
26.8,1388
27,1385
27.2,1450
27.4,1624
27.6,1675
27.8,1474
28,1304
28.2,1363
28.4,1260
28.6,1285
28.8,1381
29,1315
29.2,1257
29.4,1275
29.6,1255
29.8,1229
30,1247
30.2,1196
30.4,1270
30.6,1274
30.8,1227
31,1217
31.2,1231
31.4,1172
31.6,1204
31.8,1169
32,1141
32.2,1167
32.4,1190
32.6,1209
32.8,1119
33,1109
33.2,1199
33.4,1188
33.6,1189
33.8,1169
34,1116
34.2,1143
34.4,1174
34.6,1168
34.8,1174
35,1166
35.2,1109
35.4,1197
35.6,1144
35.8,1168
36,1210
36.2,1217
36.4,1226
36.6,1182
36.8,1141
37,1104
37.2,1195
37.4,1159
37.6,1178
37.8,1133
38,1151
38.2,1227
38.4,1160
38.6,1126
38.8,1171
39,1182
39.2,1198
39.4,1143
39.6,1167
39.8,1195
40,1224
40.2,1097
40.4,1158
40.6,1182
40.8,1157
41,1142
41.2,1138
41.4,1153
41.6,1089
41.8,1099
42,1397
42.2,1139
42.4,1069
42.6,1094
42.8,1014
43,995
43.2,1068
43.4,981
43.6,1012
43.8,965
44,1045
44.2,991
44.4,978
44.6,973
44.8,995
45,968
45.2,972
45.4,1008
45.6,947
45.8,907
46,925
46.2,903
46.4,884
46.6,928
46.8,877
47,893
47.2,922
47.4,883
47.6,872
47.8,932
48,872
48.2,855
48.4,843
48.6,821
48.8,876
49,845
49.2,795
49.4,836
49.6,876
49.8,980
50,790
50.2,789
50.4,790
50.6,801
50.8,779
51,794
51.2,793
51.4,717
51.6,714
51.8,735
52,771
52.2,709
52.4,717
52.6,748
52.8,782
53,730
53.2,736
53.4,704
53.6,709
53.8,658
54,707
54.2,722
54.4,732
54.6,724
54.8,720
55,750
55.2,648
55.4,668
55.6,681
55.8,655
56,688
56.2,684
56.4,681
56.6,712
56.8,652
57,639
57.2,620
57.4,598
57.6,634
57.8,648
58,610
58.2,638
58.4,662
58.6,638
58.8,693
59,616
59.2,630
59.4,711
59.6,768
59.8,763
60,660