Folder: Al-DWTR-Characterization-data/XRD/DWTR_AZ2

Note: README.md
# Al-DWTR-Characterization

The Diversity of Aluminum-Based DrinkingWater Treatment Residuals for Use in Environmental Remediation 

Wallace et al. (2023) 

# Citation for the use of these data

Samuel M. Wallace(a), Yuchi Zhang(a), Lang Zhou(b), Qing Ma(c), William E. Guise(c), Nancy D. Denslow(d), Jean-Claude Bonzongo(b), and Jean-Fran√ßois Gaillard(a)(2023) *Environmental Science: Water Research & Technology* - in revision - 

a) Department of Civil and Environmental Engineering, Northwestern University, 2145
Sheridan Road, Evanston, IL 60208, USA. E-mail: jf-gaillard@northwestern.edu

b) Engineering School of Sustainable Infrastructure and Environment, Department of
Environmental Engineering Sciences, University of Florida, PO Box 116450, Gainesville,
FL 32611, USA.

c) DND-CAT Synchrotron Research Center, Northwestern University, 9700 South Cass
Avenue, Argonne, IL 60439, USA.

d) Departments of Physiological Sciences and of Biochemistry and Molecular Biology and
Center for Environmental and Human Toxicology, University of Florida, University of
Florida, Gainesville, FL 32610, USA.

File: DWTR_AZ2.txt
10,1467
10.2,1508
10.4,1473
10.6,1462
10.8,1468
11,1470
11.2,1360
11.4,1451
11.6,1467
11.8,1409
12,1400
12.2,1412
12.4,1379
12.6,1330
12.8,1395
13,1411
13.2,1358
13.4,1394
13.6,1361
13.8,1391
14,1331
14.2,1309
14.4,1329
14.6,1310
14.8,1377
15,1268
15.2,1270
15.4,1367
15.6,1348
15.8,1289
16,1244
16.2,1265
16.4,1247
16.6,1209
16.8,1218
17,1124
17.2,1241
17.4,1115
17.6,1191
17.8,1147
18,1119
18.2,1117
18.4,1115
18.6,1051
18.8,1095
19,1132
19.2,1181
19.4,1188
19.6,1158
19.8,1139
20,1072
20.2,1112
20.4,1198
20.6,1123
20.8,1117
21,1066
21.2,1141
21.4,1040
21.6,1140
21.8,1070
22,1141
22.2,1092
22.4,1083
22.6,1228
22.8,1115
23,1112
23.2,1077
23.4,1084
23.6,1099
23.8,1163
24,1073
24.2,1096
24.4,1137
24.6,1196
24.8,1178
25,1136
25.2,1199
25.4,1129
25.6,1189
25.8,1270
26,1444
26.2,1658
26.4,1281
26.6,1208
26.8,1143
27,1222
27.2,1223
27.4,1263
27.6,1161
27.8,1120
28,1187
28.2,1159
28.4,1152
28.6,1216
28.8,1275
29,1837
29.2,1375
29.4,1106
29.6,1167
29.8,1100
30,1116
30.2,1125
30.4,1112
30.6,1093
30.8,1042
31,1054
31.2,1017
31.4,1034
31.6,1026
31.8,1028
32,1001
32.2,1000
32.4,1064
32.6,1061
32.8,1007
33,985
33.2,1062
33.4,994
33.6,1013
33.8,1079
34,1050
34.2,1104
34.4,1098
34.6,1059
34.8,1089
35,1140
35.2,1045
35.4,1119
35.6,1139
35.8,1106
36,1058
36.2,1047
36.4,1058
36.6,1057
36.8,1076
37,1095
37.2,1077
37.4,1119
37.6,1130
37.8,1144
38,1158
38.2,1193
38.4,1145
38.6,1176
38.8,1169
39,1450
39.2,1265
39.4,1250
39.6,1139
39.8,1179
40,1141
40.2,1201
40.4,1158
40.6,1191
40.8,1140
41,1148
41.2,1115
41.4,1187
41.6,1161
41.8,1155
42,1096
42.2,1111
42.4,1152
42.6,1208
42.8,1242
43,1121
43.2,1067
43.4,1037
43.6,1055
43.8,1214
44,1295
44.2,1024
44.4,1018
44.6,976
44.8,1005
45,1017
45.2,1022
45.4,998
45.6,1014
45.8,972
46,971
46.2,928
46.4,935
46.6,997
46.8,996
47,1101
47.2,1055
47.4,947
47.6,929
47.8,922
48,1017
48.2,1112
48.4,917
48.6,901
48.8,854
49,870
49.2,905
49.4,831
49.6,875
49.8,895
50,872
50.2,905
50.4,841
50.6,812
50.8,732
51,729
51.2,753
51.4,730
51.6,755
51.8,730
52,783
52.2,727
52.4,737
52.6,726
52.8,724
53,663
53.2,711
53.4,697
53.6,750
53.8,687
54,738
54.2,693
54.4,726
54.6,734
54.8,702
55,711
55.2,745
55.4,717
55.6,724
55.8,734
56,710
56.2,680
56.4,664
56.6,652
56.8,688
57,729
57.2,756
57.4,613
57.6,644
57.8,653
58,619
58.2,626
58.4,649
58.6,646
58.8,582
59,634
59.2,639
59.4,687
59.6,721
59.8,643
60,663