Folder: Al-DWTR-Characterization-data/XRD/DWTR_FL

Note: README.md
# Al-DWTR-Characterization

The Diversity of Aluminum-Based DrinkingWater Treatment Residuals for Use in Environmental Remediation 

Wallace et al. (2023) 

# Citation for the use of these data

Samuel M. Wallace(a), Yuchi Zhang(a), Lang Zhou(b), Qing Ma(c), William E. Guise(c), Nancy D. Denslow(d), Jean-Claude Bonzongo(b), and Jean-Fran√ßois Gaillard(a)(2023) *Environmental Science: Water Research & Technology* - in revision - 

a) Department of Civil and Environmental Engineering, Northwestern University, 2145
Sheridan Road, Evanston, IL 60208, USA. E-mail: jf-gaillard@northwestern.edu

b) Engineering School of Sustainable Infrastructure and Environment, Department of
Environmental Engineering Sciences, University of Florida, PO Box 116450, Gainesville,
FL 32611, USA.

c) DND-CAT Synchrotron Research Center, Northwestern University, 9700 South Cass
Avenue, Argonne, IL 60439, USA.

d) Departments of Physiological Sciences and of Biochemistry and Molecular Biology and
Center for Environmental and Human Toxicology, University of Florida, University of
Florida, Gainesville, FL 32610, USA.

File: coarse-washed.xyd
    4.000     5027
    4.330     4804
    4.660     4725
    4.990     4601
    5.320     4415
    5.650     4463
    5.980     4281
    6.310     4120
    6.640     3818
    6.970     3804
    7.300     3556
    7.630     3485
    7.960     3385
    8.290     3271
    8.620     3161
    8.950     3051
    9.280     3026
    9.610     3100
    9.940     3010
   10.270     3039
   10.600     2913
   10.930     2891
   11.260     2882
   11.590     2895
   11.920     2852
   12.250     2780
   12.580     2695
   12.910     2633
   13.240     2711
   13.570     2593
   13.900     2571
   14.230     2527
   14.560     2464
   14.890     2384
   15.220     2396
   15.550     2327
   15.880     2439
   16.210     2460
   16.540     2381
   16.870     2382
   17.200     2247
   17.530     2327
   17.860     2255
   18.190     2220
   18.520     2293
   18.850     2199
   19.180     2114
   19.510     2162
   19.840     1941
   20.170     1995
   20.500     1975
   20.830     1923
   21.160     1968
   21.490     1871
   21.820     1880
   22.150     1845
   22.480     1731
   22.810     1719
   23.140     1649
   23.470     1613
   23.800     1652
   24.130     1568
   24.460     1577
   24.790     1596
   25.120     1521
   25.450     1562
   25.780     1497
   26.110     1405
   26.440     1492
   26.770     1390
   27.100     1336
   27.430     1301
   27.760     1229
   28.090     1238
   28.420     1195
   28.750     1192
   29.080     1094
   29.410     1144
   29.740     1070
   30.070     1039
   30.400     1057
   30.730     1021
   31.060      944
   31.390     1011
   31.720      993
   32.050      896
   32.380      899
   32.710      946
   33.040      826
   33.370      885
   33.700      869
   34.030      846
   34.360      825
   34.690      804
   35.020      810
   35.350      732
   35.680      831
   36.010      788
   36.340      775
   36.670      785
   37.000      769
   37.330      811
   37.660      733
   37.990      803
   38.320      786
   38.650      795
   38.980      788
   39.310      713
   39.640      723
   39.970      725
   40.300      721
   40.630      751
   40.960      706
   41.290      727
   41.620      681
   41.950      684
   42.280      701
   42.610      720
   42.940      673
   43.270      654
   43.600      687
   43.930      681
   44.260      675
   44.590      676
   44.920      644
   45.250      656
   45.580      652
   45.910      628
   46.240      632
   46.570      607
   46.900      582
   47.230      611
   47.560      646
   47.890      595
   48.220      614
   48.550      590
   48.880      568
   49.210      572
   49.540      564
   49.870      539
   50.200      567
   50.530      520
   50.860      532
   51.190      525
   51.520      535
   51.850      528
   52.180      548
   52.510      545
   52.840      518
   53.170      489
   53.500      537
   53.830      477
   54.160      523
   54.490      510
   54.820      487
   55.150      491
   55.480      475
   55.810      465
   56.140      525
   56.470      499
   56.800      459
   57.130      501
   57.460      462
   57.790      475
   58.120      492
   58.450      469
   58.780      448
   59.110      463
   59.440      482
   59.770      457
   60.100      445
   60.430      446
   60.760      447
   61.090      413
   61.420      455
   61.750      443
   62.080      441
   62.410      466
   62.740      481
   63.070      419
   63.400      451
   63.730      459
   64.060      474
   64.390      447
   64.720      441
   65.050      435
   65.380      421
   65.710      425
   66.040      460
   66.370      432
   66.700      437
   67.030      428
   67.360      435
   67.690      406
   68.020      403
   68.350      401
   68.680      401
   69.010      429
   69.340      394
   69.670      420
   70.000      394
   70.330      405
   70.660      394
   70.990      406
   71.320      414
   71.650      409
   71.980      387
   72.310      364
   72.640      396
   72.970      391
   73.300      383
   73.630      378
   73.960      386
   74.290      360
   74.620      347
   74.950      371
   75.280      354
   75.610      361
   75.940      376
   76.270      376
   76.600      400
   76.930      374
   77.260      358
   77.590      373
   77.920      399
   78.250      376
   78.580      357
   78.910      353
   79.240      359
   79.570      306
   79.900      387
   80.230      343
   80.560      345
   80.890      356
   81.220      355
   81.550      314
   81.880      348
   82.210      351
   82.540      355
   82.870      346
   83.200      319
   83.530      324
   83.860      330
   84.190      316
   84.520      326
   84.850      314
   85.180      327
   85.510      293
   85.840      320
   86.170      300
   86.500      325
   86.830      302
   87.160      328
   87.490      307
   87.820      294
   88.150      318
   88.480      292
   88.810      302
   89.140      283
   89.470      279
   89.800      292
   90.130      305
   90.460      314
   90.790      321
   91.120      293
   91.450      293
   91.780      291
   92.110      305
   92.440      305
   92.770      286
   93.100      300
   93.430      303
   93.760      294
   94.090      260
   94.420      292
   94.750      299
   95.080      294
   95.410      299
   95.740      260
   96.070      276
   96.400      268
   96.730      256
   97.060      299
   97.390      297
   97.720      286
   98.050      289
   98.380      295
   98.710      280
   99.040      288
   99.370      305
   99.700      256
  100.030      278
  100.105      264

File: fine-washed.xyd
    4.000     2387
    4.330     2213
    4.660     2177
    4.990     2060
    5.320     1992
    5.650     2015
    5.980     1923
    6.310     1836
    6.640     1706
    6.970     1690
    7.300     1585
    7.630     1571
    7.960     1559
    8.290     1434
    8.620     1402
    8.950     1442
    9.280     1350
    9.610     1326
    9.940     1326
   10.270     1317
   10.600     1255
   10.930     1286
   11.260     1253
   11.590     1195
   11.920     1240
   12.250     1222
   12.580     1138
   12.910     1147
   13.240     1099
   13.570     1107
   13.900     1144
   14.230     1115
   14.560     1116
   14.890     1085
   15.220     1020
   15.550     1032
   15.880     1104
   16.210     1056
   16.540     1018
   16.870     1044
   17.200      982
   17.530      953
   17.860      983
   18.190      935
   18.520      928
   18.850      984
   19.180      909
   19.510      941
   19.840      928
   20.170      894
   20.500      950
   20.830     5671
   21.160      793
   21.490      818
   21.820      771
   22.150      811
   22.480      800
   22.810      764
   23.140      754
   23.470      741
   23.800      753
   24.130      712
   24.460      708
   24.790      694
   25.120      704
   25.450      663
   25.780      678
   26.110      664
   26.440     3360
   26.770      809
   27.100      584
   27.430      623
   27.760      581
   28.090      559
   28.420      548
   28.750      528
   29.080      533
   29.410      550
   29.740      486
   30.070      498
   30.400      460
   30.730      484
   31.060      466
   31.390      477
   31.720      444
   32.050      414
   32.380      434
   32.710      427
   33.040      403
   33.370      439
   33.700      437
   34.030      409
   34.360      441
   34.690      390
   35.020      393
   35.350      399
   35.680      385
   36.010      399
   36.340      452
   36.670      408
   37.000      403
   37.330      409
   37.660      413
   37.990      398
   38.320      397
   38.650      355
   38.980      419
   39.310      819
   39.640      386
   39.970      381
   40.300      676
   40.630      384
   40.960      411
   41.290      382
   41.620      371
   41.950      351
   42.280      545
   42.610      353
   42.940      327
   43.270      373
   43.600      326
   43.930      356
   44.260      341
   44.590      350
   44.920      356
   45.250      342
   45.580      354
   45.910      328
   46.240      299
   46.570      310
   46.900      318
   47.230      299
   47.560      308
   47.890      325
   48.220      310
   48.550      271
   48.880      268
   49.210      266
   49.540      287
   49.870      332
   50.200      447
   50.530      360
   50.860      266
   51.190      264
   51.520      267
   51.850      257
   52.180      258
   52.510      287
   52.840      243
   53.170      276
   53.500      266
   53.830      270
   54.160      243
   54.490      255
   54.820     1162
   55.150      381
   55.480      244
   55.810      228
   56.140      236
   56.470      244
   56.800      223
   57.130      276
   57.460      239
   57.790      247
   58.120      240
   58.450      213
   58.780      230
   59.110      236
   59.440      265
   59.770      626
   60.100      263
   60.430      227
   60.760      220
   61.090      233
   61.420      217
   61.750      220
   62.080      214
   62.410      219
   62.740      208
   63.070      231
   63.400      230
   63.730      223
   64.060      282
   64.390      234
   64.720      205
   65.050      240
   65.380      215
   65.710      279
   66.040      206
   66.370      208
   66.700      204
   67.030      197
   67.360      198
   67.690     1093
   68.020     1188
   68.350      390
   68.680      211
   69.010      198
   69.340      206
   69.670      179
   70.000      218
   70.330      190
   70.660      184
   70.990      211
   71.320      199
   71.650      177
   71.980      203
   72.310      174
   72.640      186
   72.970      165
   73.300      493
   73.630      191
   73.960      185
   74.290      165
   74.620      162
   74.950      174
   75.280      166
   75.610      613
   75.940      168
   76.270      179
   76.600      173
   76.930      183
   77.260      171
   77.590      392
   77.920      159
   78.250      179
   78.580      157
   78.910      153
   79.240      165
   79.570      164
   79.900      412
   80.230      133
   80.560      160
   80.890      195
   81.220      243
   81.550      219
   81.880      168
   82.210      148
   82.540      157
   82.870      126
   83.200      146
   83.530      141
   83.860      211
   84.190      126
   84.520      146
   84.850      169
   85.180      125
   85.510      132
   85.840      124
   86.170      124
   86.500      135
   86.830      121
   87.160      127
   87.490      145
   87.820      118
   88.150      139
   88.480      125
   88.810      116
   89.140      129
   89.470      122
   89.800      112
   90.130      127
   90.460      113
   90.790      359
   91.120      115
   91.450      106
   91.780      132
   92.110      106
   92.440      112
   92.770      139
   93.100      106
   93.430      101
   93.760      112
   94.090      107
   94.420      209
   94.750      139
   95.080      187
   95.410      116
   95.740      127
   96.070      259
   96.400      109
   96.730      117
   97.060       97
   97.390      112
   97.720      107
   98.050      104
   98.380      115
   98.710      188
   99.040      109
   99.370      115
   99.700       97
  100.030       98
  100.105       98

File: original-unwashed-rep.xyd
    4.000     4278
    4.330     3991
    4.660     3593
    4.990     3539
    5.320     3391
    5.650     3363
    5.980     3090
    6.310     2953
    6.640     2757
    6.970     2619
    7.300     2607
    7.630     2489
    7.960     2399
    8.290     2343
    8.620     2260
    8.950     2222
    9.280     2130
    9.610     2147
    9.940     2048
   10.270     2057
   10.600     2028
   10.930     2024
   11.260     1953
   11.590     1947
   11.920     1891
   12.250     1971
   12.580     1801
   12.910     1725
   13.240     1733
   13.570     1707
   13.900     1684
   14.230     1627
   14.560     1659
   14.890     1634
   15.220     1594
   15.550     1581
   15.880     1687
   16.210     1617
   16.540     1556
   16.870     1496
   17.200     1499
   17.530     1540
   17.860     1457
   18.190     1526
   18.520     1491
   18.850     1525
   19.180     1479
   19.510     1477
   19.840     1410
   20.170     1398
   20.500     1411
   20.830     2711
   21.160     1356
   21.490     1315
   21.820     1330
   22.150     1332
   22.480     1275
   22.810     1218
   23.140     1259
   23.470     1150
   23.800     1176
   24.130     1181
   24.460     1121
   24.790     1087
   25.120     1145
   25.450     1055
   25.780     1061
   26.110     1088
   26.440     1190
   26.770     1290
   27.100     1019
   27.430      964
   27.760      945
   28.090      968
   28.420      932
   28.750      964
   29.080      850
   29.410      856
   29.740      843
   30.070      854
   30.400      871
   30.730      795
   31.060      813
   31.390      796
   31.720      750
   32.050      716
   32.380      751
   32.710      711
   33.040      731
   33.370      693
   33.700      732
   34.030      701
   34.360      713
   34.690      665
   35.020      684
   35.350      652
   35.680      663
   36.010      708
   36.340      638
   36.670      958
   37.000      637
   37.330      623
   37.660      645
   37.990      689
   38.320      659
   38.650      627
   38.980      620
   39.310      659
   39.640      708
   39.970      665
   40.300      880
   40.630      616
   40.960      607
   41.290      651
   41.620      617
   41.950      559
   42.280      616
   42.610      666
   42.940      604
   43.270      581
   43.600      605
   43.930      604
   44.260      590
   44.590      576
   44.920      581
   45.250      570
   45.580      541
   45.910     1113
   46.240      559
   46.570      551
   46.900      524
   47.230      545
   47.560      538
   47.890      464
   48.220      498
   48.550      497
   48.880      469
   49.210      498
   49.540      494
   49.870      507
   50.200     2093
   50.530      464
   50.860      464
   51.190      416
   51.520      421
   51.850      463
   52.180      429
   52.510      466
   52.840      416
   53.170      428
   53.500      411
   53.830      378
   54.160      448
   54.490      401
   54.820      415
   55.150      416
   55.480      492
   55.810      403
   56.140      370
   56.470      406
   56.800      380
   57.130      363
   57.460      397
   57.790      387
   58.120      398
   58.450      385
   58.780      406
   59.110      370
   59.440      370
   59.770      369
   60.100     1428
   60.430      373
   60.760      372
   61.090      360
   61.420      382
   61.750      412
   62.080      375
   62.410      368
   62.740      332
   63.070      358
   63.400      344
   63.730      345
   64.060      430
   64.390      356
   64.720      362
   65.050      366
   65.380      378
   65.710      366
   66.040      333
   66.370      368
   66.700      323
   67.030      325
   67.360      342
   67.690      390
   68.020      349
   68.350      812
   68.680      354
   69.010      343
   69.340      312
   69.670      319
   70.000      322
   70.330      329
   70.660      319
   70.990      324
   71.320      302
   71.650      309
   71.980      296
   72.310      288
   72.640      289
   72.970      302
   73.300      309
   73.630      531
   73.960      291
   74.290      280
   74.620      287
   74.950      292
   75.280      272
   75.610      292
   75.940      282
   76.270      295
   76.600      249
   76.930      275
   77.260      261
   77.590      279
   77.920      297
   78.250      276
   78.580      257
   78.910      265
   79.240      266
   79.570      270
   79.900      310
   80.230      351
   80.560      249
   80.890      240
   81.220      426
   81.550      404
   81.880      218
   82.210      240
   82.540      247
   82.870      238
   83.200      236
   83.530      224
   83.860      280
   84.190      226
   84.520      236
   84.850      248
   85.180      227
   85.510      222
   85.840      215
   86.170      213
   86.500      224
   86.830      218
   87.160      246
   87.490      206
   87.820      212
   88.150      212
   88.480      228
   88.810      206
   89.140      205
   89.470      215
   89.800      198
   90.130      208
   90.460      202
   90.790      221
   91.120      239
   91.450      191
   91.780      208
   92.110      193
   92.440      201
   92.770      219
   93.100      206
   93.430      198
   93.760      204
   94.090      203
   94.420      187
   94.750      364
   95.080      207
   95.410      226
   95.740      181
   96.070      226
   96.400      320
   96.730      205
   97.060      188
   97.390      186
   97.720      197
   98.050      184
   98.380      162
   98.710      175
   99.040      203
   99.370      178
   99.700      174
  100.030      184
  100.105      206

File: original_unwashed.xyd
    0.000        6
    0.360        7
    0.720        6
    1.080      119
    1.440     6494
    1.800     3939
    2.160     3091
    2.520     2354
    2.880     2059
    3.240     1802
    3.600     1688
    3.960     1533
    4.320     1422
    4.680     1344
    5.040     1247
    5.400     1246
    5.760     1199
    6.120     1122
    6.480     1106
    6.840     1034
    7.200      993
    7.560      985
    7.920      896
    8.280      915
    8.640      854
    9.000      808
    9.360      800
    9.720      789
   10.080      784
   10.440      807
   10.800      739
   11.160      732
   11.520      758
   11.880      699
   12.240      722
   12.600      710
   12.960      667
   13.320      656
   13.680      708
   14.040      609
   14.400      643
   14.760      671
   15.120      621
   15.480      633
   15.840      589
   16.200      601
   16.560      616
   16.920      600
   17.280      562
   17.640      598
   18.000      625
   18.360      576
   18.720      566
   19.080      539
   19.440      570
   19.800      588
   20.160      510
   20.520      541
   20.880      694
   21.240      469
   21.600      459
   21.960      486
   22.320      436
   22.680      451
   23.040      436
   23.400      476
   23.760      426
   24.120      407
   24.480      409
   24.840      387
   25.200      391
   25.560      407
   25.920      400
   26.280      407
   26.640     1922
   27.000      373
   27.360      341
   27.720      369
   28.080      362
   28.440      307
   28.800      352
   29.160      307
   29.520      314
   29.880      288
   30.240      293
   30.600      296
   30.960      279
   31.320      265
   31.680      258
   32.040      225
   32.400      255
   32.760      256
   33.120      262
   33.480      248
   33.840      253
   34.200      275
   34.560      233
   34.920      239
   35.280      213
   35.640      236
   36.000      233
   36.360      258
   36.720      232
   37.080      220
   37.440      216
   37.800      232
   38.160      237
   38.520      216
   38.880      252
   39.240      231
   39.600      223
   39.960      212
   40.320      251
   40.680      205
   41.040      222
   41.400      209
   41.760      210
   42.120      214
   42.480      330
   42.840      203
   43.200      182
   43.560      192
   43.920      204
   44.280      210
   44.640      195
   45.000      191
   45.360      197
   45.720      339
   46.080      196
   46.440      188
   46.800      165
   47.160      177
   47.520      180
   47.880      178
   48.240      169
   48.600      167
   48.960      159
   49.320      160
   49.680      174
   50.040      544
   50.400      156
   50.760      160
   51.120      144
   51.480      148
   51.840      138
   52.200      149
   52.560      146
   52.920      151
   53.280      146
   53.640      146
   54.000      159
   54.360      147
   54.720      199
   55.080      152
   55.440      138
   55.800      134
   56.160      152
   56.520      129
   56.880      128
   57.240      146
   57.600      134
   57.960      133
   58.320      142
   58.680      126
   59.040      114
   59.400      116
   59.760      159
   60.120      125
   60.480      130
   60.840      138
   61.200      132
   61.560      130
   61.920      126
   62.280      131
   62.640      132
   63.000      140
   63.360      110
   63.720      131
   64.080      120
   64.440      115
   64.800      132
   65.160      122
   65.520      135
   65.880      127
   66.240      127
   66.600      127
   66.960      123
   67.320      138
   67.680      368
   68.040      294
   68.400      131
   68.760      109
   69.120      128
   69.480      108
   69.840      108
   70.200      112
   70.560      109
   70.920       97
   71.280      101
   71.640      125
   72.000      104
   72.360       99
   72.720      116
   73.080      103
   73.440      131
   73.800      100
   74.160       96
   74.520      104
   74.880      104
   75.240      102
   75.600      183
   75.960      106
   76.320       82
   76.680      103
   77.040      106
   77.400       91
   77.760      102
   78.120       85
   78.480       96
   78.840      104
   79.200       83
   79.560       67
   79.920      147
   80.280      107
   80.640       94
   81.000      132
   81.360      152
   81.720      104
   82.080      104
   82.440      108
   82.800       84
   83.160      102
   83.520       90
   83.880       97
   84.240       79
   84.600       76
   84.960       86
   85.320       82
   85.680       83
   86.040       77
   86.400       80
   86.760       83
   87.120       80
   87.480       90
   87.840       80
   88.200       95
   88.560       74
   88.920       74
   89.280       82
   89.640       79
   90.000       68
   90.360       81
   90.720      140
   91.080       86
   91.440       87
   91.800       79
   92.160       82
   92.520       92
   92.880       74
   93.240       77
   93.600       83
   93.960       74
   94.320       75
   94.680       99
   95.040       99
   95.400       83
   95.760       70
   96.120       94
   96.480       76
   96.840       72
   97.200       66
   97.560       74
   97.920       80
   98.280       59
   98.640      100
   99.000       63
   99.360       68
   99.720       82
  100.080       60
  100.440       74
  100.800       67
  101.160       76
  101.520       72
  101.880       66
  102.240       80
  102.600       66
  102.960       61
  103.320       70
  103.680       82
  104.040       72
  104.115       81