Folder: Al-DWTR-Characterization-data/XRD/DWTR_PA

Note: README.md
# Al-DWTR-Characterization

The Diversity of Aluminum-Based DrinkingWater Treatment Residuals for Use in Environmental Remediation 

Wallace et al. (2023) 

# Citation for the use of these data

Samuel M. Wallace(a), Yuchi Zhang(a), Lang Zhou(b), Qing Ma(c), William E. Guise(c), Nancy D. Denslow(d), Jean-Claude Bonzongo(b), and Jean-Fran√ßois Gaillard(a)(2023) *Environmental Science: Water Research & Technology* - in revision - 

a) Department of Civil and Environmental Engineering, Northwestern University, 2145
Sheridan Road, Evanston, IL 60208, USA. E-mail: jf-gaillard@northwestern.edu

b) Engineering School of Sustainable Infrastructure and Environment, Department of
Environmental Engineering Sciences, University of Florida, PO Box 116450, Gainesville,
FL 32611, USA.

c) DND-CAT Synchrotron Research Center, Northwestern University, 9700 South Cass
Avenue, Argonne, IL 60439, USA.

d) Departments of Physiological Sciences and of Biochemistry and Molecular Biology and
Center for Environmental and Human Toxicology, University of Florida, University of
Florida, Gainesville, FL 32610, USA.

File: DWTR_PA.txt
10,1860
10.2,1843
10.4,1869
10.6,1846
10.8,1737
11,1874
11.2,1891
11.4,1897
11.6,1848
11.8,1905
12,1855
12.2,1894
12.4,1874
12.6,1820
12.8,1875
13,1812
13.2,1826
13.4,1965
13.6,1922
13.8,1800
14,1746
14.2,1726
14.4,1693
14.6,1659
14.8,1617
15,1727
15.2,1618
15.4,1579
15.6,1697
15.8,1660
16,1605
16.2,1544
16.4,1541
16.6,1514
16.8,1542
17,1612
17.2,1498
17.4,1526
17.6,1461
17.8,1507
18,1555
18.2,1554
18.4,1573
18.6,1530
18.8,1471
19,1500
19.2,1593
19.4,1627
19.6,1650
19.8,1624
20,1743
20.2,1694
20.4,1587
20.6,1763
20.8,1647
21,1716
21.2,1689
21.4,1696
21.6,1664
21.8,1725
22,1782
22.2,1765
22.4,1770
22.6,1922
22.8,1882
23,1912
23.2,1964
23.4,1962
23.6,2102
23.8,2138
24,2128
24.2,2171
24.4,2301
24.6,2355
24.8,2413
25,2403
25.2,2459
25.4,2416
25.6,2469
25.8,2346
26,2382
26.2,2702
26.4,2592
26.6,2211
26.8,2144
27,1984
27.2,1946
27.4,1753
27.6,1774
27.8,1710
28,1578
28.2,1621
28.4,1573
28.6,1557
28.8,1382
29,1378
29.2,1279
29.4,1297
29.6,1265
29.8,1324
30,1172
30.2,1190
30.4,1144
30.6,1101
30.8,1115
31,1110
31.2,1066
31.4,991
31.6,1060
31.8,1074
32,1047
32.2,1020
32.4,1053
32.6,1049
32.8,1033
33,1057
33.2,1068
33.4,969
33.6,969
33.8,966
34,1026
34.2,1083
34.4,1146
34.6,1204
34.8,1227
35,1064
35.2,1046
35.4,1040
35.6,1061
35.8,1011
36,1069
36.2,1162
36.4,1057
36.6,1067
36.8,1097
37,1089
37.2,1063
37.4,1072
37.6,1025
37.8,1063
38,986
38.2,1066
38.4,1019
38.6,950
38.8,1064
39,1086
39.2,1000
39.4,1078
39.6,1086
39.8,1032
40,1104
40.2,1053
40.4,1059
40.6,1075
40.8,1062
41,1044
41.2,1106
41.4,1054
41.6,1086
41.8,1036
42,1211
42.2,1160
42.4,1125
42.6,1092
42.8,1097
43,1059
43.2,1051
43.4,1070
43.6,1142
43.8,1115
44,1075
44.2,1070
44.4,1066
44.6,1062
44.8,973
45,1054
45.2,999
45.4,1008
45.6,957
45.8,983
46,914
46.2,963
46.4,1025
46.6,911
46.8,959
47,944
47.2,859
47.4,894
47.6,869
47.8,858
48,867
48.2,870
48.4,847
48.6,840
48.8,814
49,815
49.2,815
49.4,825
49.6,846
49.8,889
50,840
50.2,814
50.4,800
50.6,834
50.8,821
51,792
51.2,816
51.4,781
51.6,734
51.8,750
52,745
52.2,770
52.4,781
52.6,814
52.8,790
53,770
53.2,812
53.4,756
53.6,797
53.8,778
54,838
54.2,803
54.4,798
54.6,817
54.8,757
55,789
55.2,733
55.4,756
55.6,746
55.8,735
56,715
56.2,671
56.4,725
56.6,731
56.8,694
57,678
57.2,690
57.4,693
57.6,696
57.8,639
58,617
58.2,664
58.4,634
58.6,620
58.8,641
59,636
59.2,641
59.4,687
59.6,680
59.8,685
60,591