Folder: Al-DWTR-Characterization-data/XRD/DWTR_AZ1

Note: README.md
# Al-DWTR-Characterization

The Diversity of Aluminum-Based DrinkingWater Treatment Residuals for Use in Environmental Remediation 

Wallace et al. (2023) 

# Citation for the use of these data

Samuel M. Wallace(a), Yuchi Zhang(a), Lang Zhou(b), Qing Ma(c), William E. Guise(c), Nancy D. Denslow(d), Jean-Claude Bonzongo(b), and Jean-Fran√ßois Gaillard(a)(2023) *Environmental Science: Water Research & Technology* - in revision - 

a) Department of Civil and Environmental Engineering, Northwestern University, 2145
Sheridan Road, Evanston, IL 60208, USA. E-mail: jf-gaillard@northwestern.edu

b) Engineering School of Sustainable Infrastructure and Environment, Department of
Environmental Engineering Sciences, University of Florida, PO Box 116450, Gainesville,
FL 32611, USA.

c) DND-CAT Synchrotron Research Center, Northwestern University, 9700 South Cass
Avenue, Argonne, IL 60439, USA.

d) Departments of Physiological Sciences and of Biochemistry and Molecular Biology and
Center for Environmental and Human Toxicology, University of Florida, University of
Florida, Gainesville, FL 32610, USA.

File: DWTR_AZ1.txt
10,1504
10.2,1424
10.4,1420
10.6,1472
10.8,1464
11,1393
11.2,1416
11.4,1303
11.6,1391
11.8,1312
12,1390
12.2,1397
12.4,1352
12.6,1302
12.8,1308
13,1231
13.2,1244
13.4,1281
13.6,1292
13.8,1210
14,1239
14.2,1251
14.4,1240
14.6,1209
14.8,1248
15,1192
15.2,1147
15.4,1190
15.6,1224
15.8,1199
16,1171
16.2,1137
16.4,1072
16.6,1083
16.8,1108
17,998
17.2,1001
17.4,967
17.6,960
17.8,1001
18,1000
18.2,952
18.4,892
18.6,916
18.8,917
19,948
19.2,969
19.4,1170
19.6,1212
19.8,1159
20,1084
20.2,1048
20.4,966
20.6,987
20.8,916
21,949
21.2,880
21.4,909
21.6,885
21.8,877
22,920
22.2,798
22.4,814
22.6,785
22.8,816
23,757
23.2,772
23.4,800
23.6,785
23.8,782
24,765
24.2,761
24.4,754
24.6,771
24.8,783
25,774
25.2,814
25.4,761
25.6,786
25.8,770
26,792
26.2,814
26.4,824
26.6,704
26.8,726
27,683
27.2,688
27.4,627
27.6,712
27.8,617
28,644
28.2,630
28.4,593
28.6,601
28.8,638
29,594
29.2,605
29.4,570
29.6,601
29.8,550
30,577
30.2,611
30.4,591
30.6,627
30.8,532
31,527
31.2,530
31.4,542
31.6,577
31.8,535
32,514
32.2,517
32.4,540
32.6,524
32.8,508
33,516
33.2,477
33.4,484
33.6,569
33.8,565
34,567
34.2,663
34.4,738
34.6,805
34.8,748
35,723
35.2,759
35.4,718
35.6,693
35.8,674
36,716
36.2,697
36.4,689
36.6,629
36.8,640
37,645
37.2,646
37.4,578
37.6,608
37.8,595
38,618
38.2,617
38.4,585
38.6,565
38.8,606
39,538
39.2,594
39.4,515
39.6,540
39.8,576
40,547
40.2,502
40.4,561
40.6,532
40.8,538
41,511
41.2,521
41.4,507
41.6,570
41.8,509
42,526
42.2,534
42.4,528
42.6,508
42.8,481
43,468
43.2,476
43.4,526
43.6,551
43.8,499
44,492
44.2,482
44.4,453
44.6,456
44.8,482
45,485
45.2,495
45.4,539
45.6,485
45.8,436
46,455
46.2,456
46.4,448
46.6,443
46.8,499
47,465
47.2,487
47.4,431
47.6,450
47.8,419
48,434
48.2,425
48.4,426
48.6,458
48.8,422
49,478
49.2,401
49.4,412
49.6,399
49.8,425
50,467
50.2,409
50.4,461
50.6,424
50.8,392
51,380
51.2,374
51.4,378
51.6,379
51.8,408
52,391
52.2,386
52.4,376
52.6,384
52.8,440
53,474
53.2,489
53.4,488
53.6,500
53.8,475
54,509
54.2,489
54.4,488
54.6,487
54.8,478
55,471
55.2,477
55.4,442
55.6,492
55.8,414
56,449
56.2,443
56.4,430
56.6,432
56.8,433
57,437
57.2,393
57.4,448
57.6,414
57.8,391
58,429
58.2,404
58.4,402
58.6,402
58.8,401
59,396
59.2,392
59.4,379
59.6,392
59.8,403
60,407