Folder: Al-DWTR-Characterization-data/XRD/DWTR_KS

Note: README.md
# Al-DWTR-Characterization

The Diversity of Aluminum-Based DrinkingWater Treatment Residuals for Use in Environmental Remediation 

Wallace et al. (2023) 

# Citation for the use of these data

Samuel M. Wallace(a), Yuchi Zhang(a), Lang Zhou(b), Qing Ma(c), William E. Guise(c), Nancy D. Denslow(d), Jean-Claude Bonzongo(b), and Jean-Fran√ßois Gaillard(a)(2023) *Environmental Science: Water Research & Technology* - in revision - 

a) Department of Civil and Environmental Engineering, Northwestern University, 2145
Sheridan Road, Evanston, IL 60208, USA. E-mail: jf-gaillard@northwestern.edu

b) Engineering School of Sustainable Infrastructure and Environment, Department of
Environmental Engineering Sciences, University of Florida, PO Box 116450, Gainesville,
FL 32611, USA.

c) DND-CAT Synchrotron Research Center, Northwestern University, 9700 South Cass
Avenue, Argonne, IL 60439, USA.

d) Departments of Physiological Sciences and of Biochemistry and Molecular Biology and
Center for Environmental and Human Toxicology, University of Florida, University of
Florida, Gainesville, FL 32610, USA.

File: DWTR_KS.txt
10,1444
10.2,1571
10.4,1469
10.6,1476
10.8,1398
11,1422
11.2,1362
11.4,1421
11.6,1368
11.8,1367
12,1323
12.2,1407
12.4,1347
12.6,1274
12.8,1265
13,1273
13.2,1248
13.4,1247
13.6,1231
13.8,1231
14,1156
14.2,1135
14.4,1065
14.6,1137
14.8,1051
15,1035
15.2,1090
15.4,1066
15.6,1007
15.8,974
16,945
16.2,964
16.4,951
16.6,946
16.8,907
17,885
17.2,900
17.4,899
17.6,878
17.8,847
18,870
18.2,841
18.4,835
18.6,864
18.8,848
19,810
19.2,835
19.4,871
19.6,1058
19.8,1040
20,987
20.2,943
20.4,897
20.6,1430
20.8,1477
21,925
21.2,842
21.4,848
21.6,811
21.8,881
22,854
22.2,785
22.4,777
22.6,788
22.8,777
23,751
23.2,761
23.4,813
23.6,876
23.8,865
24,872
24.2,728
24.4,695
24.6,713
24.8,724
25,727
25.2,790
25.4,741
25.6,741
25.8,745
26,817
26.2,1671
26.4,4726
26.6,4313
26.8,1129
27,808
27.2,862
27.4,837
27.6,912
27.8,933
28,820
28.2,662
28.4,669
28.6,622
28.8,618
29,647
29.2,814
29.4,809
29.6,699
29.8,708
30,634
30.2,638
30.4,650
30.6,573
30.8,618
31,605
31.2,614
31.4,559
31.6,548
31.8,570
32,541
32.2,529
32.4,538
32.6,569
32.8,526
33,541
33.2,559
33.4,527
33.6,548
33.8,577
34,593
34.2,642
34.4,865
34.6,956
34.8,989
35,894
35.2,779
35.4,746
35.6,770
35.8,739
36,772
36.2,908
36.4,1161
36.6,908
36.8,727
37,742
37.2,713
37.4,756
37.6,750
37.8,661
38,598
38.2,659
38.4,663
38.6,615
38.8,594
39,789
39.2,975
39.4,1035
39.6,683
39.8,698
40,793
40.2,811
40.4,688
40.6,598
40.8,628
41,624
41.2,616
41.4,591
41.6,595
41.8,589
42,760
42.2,954
42.4,966
42.6,617
42.8,533
43,595
43.2,579
43.4,540
43.6,509
43.8,515
44,525
44.2,530
44.4,515
44.6,532
44.8,561
45,558
45.2,576
45.4,654
45.6,805
45.8,695
46,490
46.2,430
46.4,504
46.6,492
46.8,477
47,467
47.2,481
47.4,525
47.6,476
47.8,454
48,493
48.2,457
48.4,500
48.6,488
48.8,447
49,437
49.2,455
49.4,433
49.6,471
49.8,891
50,1373
50.2,926
50.4,519
50.6,477
50.8,527
51,500
51.2,469
51.4,409
51.6,390
51.8,411
52,426
52.2,388
52.4,416
52.6,440
52.8,428
53,448
53.2,493
53.4,447
53.6,504
53.8,525
54,527
54.2,477
54.4,505
54.6,681
54.8,793
55,654
55.2,715
55.4,550
55.6,489
55.8,489
56,421
56.2,438
56.4,489
56.6,418
56.8,455
57,390
57.2,441
57.4,473
57.6,444
57.8,375
58,394
58.2,407
58.4,394
58.6,399
58.8,419
59,395
59.2,401
59.4,435
59.6,572
59.8,1083
60,865