Folder: Al-DWTR-Characterization-data/XRD/DWTR_AR

Note: README.md
# Al-DWTR-Characterization

The Diversity of Aluminum-Based DrinkingWater Treatment Residuals for Use in Environmental Remediation 

Wallace et al. (2023) 

# Citation for the use of these data

Samuel M. Wallace(a), Yuchi Zhang(a), Lang Zhou(b), Qing Ma(c), William E. Guise(c), Nancy D. Denslow(d), Jean-Claude Bonzongo(b), and Jean-Fran√ßois Gaillard(a)(2023) *Environmental Science: Water Research & Technology* - in revision - 

a) Department of Civil and Environmental Engineering, Northwestern University, 2145
Sheridan Road, Evanston, IL 60208, USA. E-mail: jf-gaillard@northwestern.edu

b) Engineering School of Sustainable Infrastructure and Environment, Department of
Environmental Engineering Sciences, University of Florida, PO Box 116450, Gainesville,
FL 32611, USA.

c) DND-CAT Synchrotron Research Center, Northwestern University, 9700 South Cass
Avenue, Argonne, IL 60439, USA.

d) Departments of Physiological Sciences and of Biochemistry and Molecular Biology and
Center for Environmental and Human Toxicology, University of Florida, University of
Florida, Gainesville, FL 32610, USA.

File: DWTR_AR.txt
10,1620
10.2,1487
10.4,1547
10.6,1513
10.8,1502
11,1513
11.2,1530
11.4,1514
11.6,1492
11.8,1507
12,1579
12.2,1503
12.4,1466
12.6,1470
12.8,1537
13,1485
13.2,1558
13.4,1545
13.6,1520
13.8,1465
14,1400
14.2,1301
14.4,1323
14.6,1287
14.8,1243
15,1283
15.2,1266
15.4,1246
15.6,1231
15.8,1212
16,1121
16.2,1115
16.4,1163
16.6,1027
16.8,1086
17,1089
17.2,1050
17.4,1071
17.6,1031
17.8,1037
18,1014
18.2,957
18.4,968
18.6,956
18.8,912
19,901
19.2,911
19.4,903
19.6,940
19.8,846
20,912
20.2,852
20.4,920
20.6,935
20.8,865
21,907
21.2,873
21.4,819
21.6,825
21.8,846
22,805
22.2,804
22.4,808
22.6,809
22.8,830
23,760
23.2,759
23.4,751
23.6,779
23.8,769
24,774
24.2,722
24.4,721
24.6,750
24.8,722
25,692
25.2,727
25.4,701
25.6,775
25.8,723
26,756
26.2,946
26.4,842
26.6,739
26.8,748
27,694
27.2,704
27.4,708
27.6,716
27.8,686
28,704
28.2,689
28.4,671
28.6,693
28.8,647
29,722
29.2,694
29.4,706
29.6,661
29.8,660
30,693
30.2,675
30.4,705
30.6,696
30.8,683
31,689
31.2,694
31.4,701
31.6,638
31.8,682
32,663
32.2,623
32.4,692
32.6,715
32.8,665
33,665
33.2,667
33.4,711
33.6,677
33.8,692
34,668
34.2,759
34.4,779
34.6,764
34.8,754
35,789
35.2,754
35.4,706
35.6,745
35.8,746
36,727
36.2,779
36.4,743
36.6,775
36.8,701
37,743
37.2,729
37.4,754
37.6,737
37.8,747
38,702
38.2,730
38.4,702
38.6,727
38.8,715
39,713
39.2,790
39.4,696
39.6,806
39.8,719
40,737
40.2,695
40.4,685
40.6,689
40.8,715
41,696
41.2,660
41.4,656
41.6,688
41.8,684
42,705
42.2,698
42.4,664
42.6,669
42.8,631
43,675
43.2,620
43.4,719
43.6,693
43.8,637
44,688
44.2,641
44.4,625
44.6,637
44.8,658
45,601
45.2,611
45.4,680
45.6,675
45.8,629
46,662
46.2,637
46.4,630
46.6,663
46.8,621
47,620
47.2,616
47.4,670
47.6,626
47.8,640
48,606
48.2,639
48.4,614
48.6,607
48.8,609
49,591
49.2,605
49.4,624
49.6,644
49.8,619
50,639
50.2,580
50.4,615
50.6,602
50.8,574
51,614
51.2,615
51.4,618
51.6,593
51.8,539
52,625
52.2,563
52.4,628
52.6,615
52.8,647
53,614
53.2,566
53.4,585
53.6,645
53.8,604
54,616
54.2,621
54.4,621
54.6,677
54.8,627
55,636
55.2,626
55.4,571
55.6,539
55.8,568
56,582
56.2,605
56.4,573
56.6,589
56.8,606
57,612
57.2,584
57.4,611
57.6,564
57.8,602
58,598
58.2,597
58.4,631
58.6,615
58.8,608
59,626
59.2,614
59.4,607
59.6,581
59.8,623
60,549