Folder: Al-DWTR-Characterization-data/XRD/DWTR_IL

Note: README.md
# Al-DWTR-Characterization

The Diversity of Aluminum-Based DrinkingWater Treatment Residuals for Use in Environmental Remediation 

Wallace et al. (2023) 

# Citation for the use of these data

Samuel M. Wallace(a), Yuchi Zhang(a), Lang Zhou(b), Qing Ma(c), William E. Guise(c), Nancy D. Denslow(d), Jean-Claude Bonzongo(b), and Jean-Fran√ßois Gaillard(a)(2023) *Environmental Science: Water Research & Technology* - in revision - 

a) Department of Civil and Environmental Engineering, Northwestern University, 2145
Sheridan Road, Evanston, IL 60208, USA. E-mail: jf-gaillard@northwestern.edu

b) Engineering School of Sustainable Infrastructure and Environment, Department of
Environmental Engineering Sciences, University of Florida, PO Box 116450, Gainesville,
FL 32611, USA.

c) DND-CAT Synchrotron Research Center, Northwestern University, 9700 South Cass
Avenue, Argonne, IL 60439, USA.

d) Departments of Physiological Sciences and of Biochemistry and Molecular Biology and
Center for Environmental and Human Toxicology, University of Florida, University of
Florida, Gainesville, FL 32610, USA.

File: DWTR_IL.txt
10,1563
10.2,1607
10.4,1509
10.6,1592
10.8,1580
11,1529
11.2,1534
11.4,1478
11.6,1514
11.8,1448
12,1421
12.2,1369
12.4,1444
12.6,1386
12.8,1386
13,1342
13.2,1382
13.4,1296
13.6,1284
13.8,1302
14,1245
14.2,1164
14.4,1130
14.6,1152
14.8,1156
15,1109
15.2,1170
15.4,1105
15.6,1024
15.8,1054
16,1002
16.2,955
16.4,969
16.6,920
16.8,866
17,828
17.2,844
17.4,832
17.6,809
17.8,805
18,818
18.2,756
18.4,736
18.6,764
18.8,771
19,726
19.2,745
19.4,769
19.6,710
19.8,683
20,703
20.2,684
20.4,687
20.6,704
20.8,630
21,622
21.2,674
21.4,587
21.6,609
21.8,640
22,578
22.2,586
22.4,562
22.6,742
22.8,1062
23,911
23.2,701
23.4,593
23.6,504
23.8,505
24,499
24.2,493
24.4,563
24.6,499
24.8,506
25,526
25.2,514
25.4,494
25.6,467
25.8,470
26,460
26.2,506
26.4,670
26.6,514
26.8,442
27,475
27.2,455
27.4,457
27.6,450
27.8,457
28,461
28.2,548
28.4,516
28.6,531
28.8,797
29,2648
29.2,7052
29.4,4341
29.6,1228
29.8,552
30,503
30.2,449
30.4,400
30.6,422
30.8,430
31,473
31.2,610
31.4,575
31.6,443
31.8,385
32,380
32.2,406
32.4,339
32.6,349
32.8,346
33,356
33.2,332
33.4,367
33.6,373
33.8,370
34,380
34.2,315
34.4,382
34.6,390
34.8,388
35,356
35.2,393
35.4,479
35.6,813
35.8,1205
36,686
36.2,411
36.4,342
36.6,341
36.8,327
37,320
37.2,306
37.4,329
37.6,358
37.8,368
38,295
38.2,351
38.4,334
38.6,337
38.8,422
39,1003
39.2,1546
39.4,1151
39.6,574
39.8,346
40,274
40.2,311
40.4,321
40.6,287
40.8,292
41,306
41.2,312
41.4,313
41.6,275
41.8,326
42,323
42.2,275
42.4,340
42.6,493
42.8,1144
43,1231
43.2,805
43.4,458
43.6,341
43.8,263
44,291
44.2,266
44.4,289
44.6,302
44.8,278
45,247
45.2,256
45.4,253
45.6,285
45.8,285
46,282
46.2,276
46.4,294
46.6,424
46.8,700
47,909
47.2,1450
47.4,1486
47.6,981
47.8,537
48,672
48.2,1375
48.4,1594
48.6,933
48.8,480
49,281
49.2,282
49.4,265
49.6,278
49.8,262
50,262
50.2,234
50.4,245
50.6,245
50.8,248
51,212
51.2,240
51.4,242
51.6,226
51.8,220
52,211
52.2,207
52.4,211
52.6,180
52.8,208
53,203
53.2,195
53.4,216
53.6,216
53.8,214
54,224
54.2,208
54.4,200
54.6,226
54.8,215
55,217
55.2,194
55.4,195
55.6,176
55.8,213
56,249
56.2,382
56.4,426
56.6,331
56.8,307
57,683
57.2,876
57.4,627
57.6,391
57.8,315
58,283
58.2,253
58.4,248
58.6,184
58.8,215
59,223
59.2,219
59.4,244
59.6,226
59.8,242
60,254