Folder: Al-DWTR-Characterization-data/XRD/DWTR_TX

Note: README.md
# Al-DWTR-Characterization

The Diversity of Aluminum-Based DrinkingWater Treatment Residuals for Use in Environmental Remediation 

Wallace et al. (2023) 

# Citation for the use of these data

Samuel M. Wallace(a), Yuchi Zhang(a), Lang Zhou(b), Qing Ma(c), William E. Guise(c), Nancy D. Denslow(d), Jean-Claude Bonzongo(b), and Jean-Fran√ßois Gaillard(a)(2023) *Environmental Science: Water Research & Technology* - in revision - 

a) Department of Civil and Environmental Engineering, Northwestern University, 2145
Sheridan Road, Evanston, IL 60208, USA. E-mail: jf-gaillard@northwestern.edu

b) Engineering School of Sustainable Infrastructure and Environment, Department of
Environmental Engineering Sciences, University of Florida, PO Box 116450, Gainesville,
FL 32611, USA.

c) DND-CAT Synchrotron Research Center, Northwestern University, 9700 South Cass
Avenue, Argonne, IL 60439, USA.

d) Departments of Physiological Sciences and of Biochemistry and Molecular Biology and
Center for Environmental and Human Toxicology, University of Florida, University of
Florida, Gainesville, FL 32610, USA.

File: DWTR_TX.txt
10,1675
10.2,1656
10.4,1589
10.6,1591
10.8,1653
11,1648
11.2,1646
11.4,1677
11.6,1605
11.8,1696
12,1716
12.2,1646
12.4,1677
12.6,1575
12.8,1566
13,1561
13.2,1617
13.4,1584
13.6,1580
13.8,1485
14,1396
14.2,1369
14.4,1365
14.6,1357
14.8,1302
15,1265
15.2,1272
15.4,1228
15.6,1167
15.8,1151
16,1146
16.2,1143
16.4,1055
16.6,1086
16.8,1035
17,1075
17.2,1109
17.4,997
17.6,1013
17.8,965
18,979
18.2,933
18.4,936
18.6,938
18.8,975
19,897
19.2,1017
19.4,1076
19.6,1190
19.8,1239
20,1111
20.2,1023
20.4,1036
20.6,1055
20.8,1131
21,985
21.2,930
21.4,922
21.6,940
21.8,887
22,929
22.2,939
22.4,877
22.6,905
22.8,868
23,888
23.2,888
23.4,854
23.6,849
23.8,841
24,856
24.2,830
24.4,833
24.6,855
24.8,898
25,806
25.2,886
25.4,833
25.6,880
25.8,830
26,893
26.2,1155
26.4,1739
26.6,1757
26.8,974
27,908
27.2,813
27.4,830
27.6,791
27.8,822
28,749
28.2,754
28.4,707
28.6,669
28.8,733
29,700
29.2,740
29.4,748
29.6,728
29.8,771
30,682
30.2,716
30.4,695
30.6,718
30.8,727
31,742
31.2,701
31.4,657
31.6,663
31.8,652
32,657
32.2,613
32.4,592
32.6,661
32.8,642
33,642
33.2,610
33.4,615
33.6,665
33.8,668
34,717
34.2,810
34.4,990
34.6,1068
34.8,1119
35,1025
35.2,835
35.4,836
35.6,808
35.8,791
36,762
36.2,808
36.4,913
36.6,818
36.8,804
37,771
37.2,855
37.4,832
37.6,852
37.8,793
38,747
38.2,704
38.4,700
38.6,708
38.8,696
39,652
39.2,707
39.4,801
39.6,704
39.8,681
40,712
40.2,731
40.4,659
40.6,645
40.8,689
41,642
41.2,662
41.4,621
41.6,615
41.8,567
42,631
42.2,695
42.4,673
42.6,610
42.8,567
43,599
43.2,581
43.4,552
43.6,545
43.8,530
44,573
44.2,586
44.4,549
44.6,580
44.8,608
45,571
45.2,607
45.4,557
45.6,600
45.8,628
46,536
46.2,475
46.4,510
46.6,500
46.8,477
47,468
47.2,471
47.4,482
47.6,457
47.8,505
48,509
48.2,452
48.4,431
48.6,423
48.8,467
49,462
49.2,487
49.4,465
49.6,475
49.8,543
50,609
50.2,527
50.4,451
50.6,443
50.8,401
51,419
51.2,426
51.4,409
51.6,429
51.8,385
52,421
52.2,447
52.4,420
52.6,416
52.8,462
53,444
53.2,472
53.4,496
53.6,495
53.8,537
54,536
54.2,543
54.4,514
54.6,544
54.8,596
55,569
55.2,552
55.4,541
55.6,501
55.8,513
56,495
56.2,514
56.4,495
56.6,476
56.8,469
57,434
57.2,452
57.4,458
57.6,426
57.8,412
58,406
58.2,441
58.4,459
58.6,448
58.8,423
59,391
59.2,431
59.4,409
59.6,428
59.8,589
60,541