Folder: Al-DWTR-Characterization-data/XRD/DWTR_WY/Lab Source

Note: README.md
# Al-DWTR-Characterization

The Diversity of Aluminum-Based DrinkingWater Treatment Residuals for Use in Environmental Remediation 

Wallace et al. (2023) 

# Citation for the use of these data

Samuel M. Wallace(a), Yuchi Zhang(a), Lang Zhou(b), Qing Ma(c), William E. Guise(c), Nancy D. Denslow(d), Jean-Claude Bonzongo(b), and Jean-Fran√ßois Gaillard(a)(2023) *Environmental Science: Water Research & Technology* - in revision - 

a) Department of Civil and Environmental Engineering, Northwestern University, 2145
Sheridan Road, Evanston, IL 60208, USA. E-mail: jf-gaillard@northwestern.edu

b) Engineering School of Sustainable Infrastructure and Environment, Department of
Environmental Engineering Sciences, University of Florida, PO Box 116450, Gainesville,
FL 32611, USA.

c) DND-CAT Synchrotron Research Center, Northwestern University, 9700 South Cass
Avenue, Argonne, IL 60439, USA.

d) Departments of Physiological Sciences and of Biochemistry and Molecular Biology and
Center for Environmental and Human Toxicology, University of Florida, University of
Florida, Gainesville, FL 32610, USA.

File: DWTR_WY_Fine.txt
10,1751
10.2,1757
10.4,1896
10.6,1647
10.8,1776
11,1657
11.2,1726
11.4,1626
11.6,1619
11.8,1666
12,1678
12.2,1707
12.4,1593
12.6,1595
12.8,1522
13,1565
13.2,1539
13.4,1549
13.6,1604
13.8,1576
14,1488
14.2,1481
14.4,1424
14.6,1474
14.8,1445
15,1510
15.2,1531
15.4,1515
15.6,1411
15.8,1451
16,1443
16.2,1405
16.4,1471
16.6,1460
16.8,1390
17,1443
17.2,1441
17.4,1453
17.6,1462
17.8,1491
18,1510
18.2,1493
18.4,1398
18.6,1418
18.8,1419
19,1464
19.2,1432
19.4,1533
19.6,1766
19.8,1876
20,1681
20.2,1724
20.4,1577
20.6,1709
20.8,2587
21,1539
21.2,1533
21.4,1405
21.6,1447
21.8,1445
22,1489
22.2,1392
22.4,1434
22.6,1373
22.8,1411
23,1474
23.2,1403
23.4,1483
23.6,1550
23.8,1374
24,1382
24.2,1431
24.4,1365
24.6,1452
24.8,1436
25,1471
25.2,1414
25.4,1407
25.6,1444
25.8,1434
26,1377
26.2,1495
26.4,2507
26.6,4967
26.8,1513
27,1505
27.2,1356
27.4,1834
27.6,1566
27.8,1606
28,1279
28.2,1251
28.4,1205
28.6,1168
28.8,1142
29,1108
29.2,1172
29.4,1066
29.6,1170
29.8,1154
30,1051
30.2,1079
30.4,1080
30.6,1110
30.8,1183
31,1056
31.2,1061
31.4,1002
31.6,972
31.8,993
32,987
32.2,933
32.4,931
32.6,921
32.8,961
33,931
33.2,880
33.4,941
33.6,939
33.8,934
34,991
34.2,948
34.4,1020
34.6,1186
34.8,1208
35,1169
35.2,1120
35.4,1129
35.6,1096
35.8,960
36,1006
36.2,1050
36.4,1247
36.6,1158
36.8,1053
37,1062
37.2,1019
37.4,1045
37.6,1010
37.8,978
38,934
38.2,936
38.4,933
38.6,995
38.8,950
39,897
39.2,1016
39.4,1126
39.6,968
39.8,894
40,961
40.2,1064
40.4,903
40.6,930
40.8,950
41,981
41.2,893
41.4,924
41.6,963
41.8,898
42,930
42.2,924
42.4,1124
42.6,952
42.8,906
43,893
43.2,802
43.4,846
43.6,819
43.8,816
44,829
44.2,850
44.4,858
44.6,808
44.8,865
45,818
45.2,833
45.4,862
45.6,894
45.8,951
46,810
46.2,771
46.4,767
46.6,718
46.8,789
47,754
47.2,726
47.4,738
47.6,734
47.8,772
48,776
48.2,766
48.4,732
48.6,729
48.8,694
49,774
49.2,750
49.4,773
49.6,752
49.8,784
50,1276
50.2,980
50.4,864
50.6,794
50.8,724
51,704
51.2,694
51.4,694
51.6,611
51.8,581
52,646
52.2,670
52.4,672
52.6,689
52.8,710
53,676
53.2,693
53.4,717
53.6,698
53.8,735
54,782
54.2,689
54.4,787
54.6,796
54.8,876
55,744
55.2,796
55.4,770
55.6,754
55.8,696
56,737
56.2,718
56.4,665
56.6,681
56.8,669
57,670
57.2,670
57.4,689
57.6,653
57.8,674
58,640
58.2,678
58.4,638
58.6,697
58.8,719
59,673
59.2,712
59.4,655
59.6,681
59.8,971
60,880