Folder: Al-DWTR-Characterization-data/XRD/DWTR_MN/Lab Source

Note: README.md
# Al-DWTR-Characterization

The Diversity of Aluminum-Based DrinkingWater Treatment Residuals for Use in Environmental Remediation 

Wallace et al. (2023) 

# Citation for the use of these data

Samuel M. Wallace(a), Yuchi Zhang(a), Lang Zhou(b), Qing Ma(c), William E. Guise(c), Nancy D. Denslow(d), Jean-Claude Bonzongo(b), and Jean-Fran√ßois Gaillard(a)(2023) *Environmental Science: Water Research & Technology* - in revision - 

a) Department of Civil and Environmental Engineering, Northwestern University, 2145
Sheridan Road, Evanston, IL 60208, USA. E-mail: jf-gaillard@northwestern.edu

b) Engineering School of Sustainable Infrastructure and Environment, Department of
Environmental Engineering Sciences, University of Florida, PO Box 116450, Gainesville,
FL 32611, USA.

c) DND-CAT Synchrotron Research Center, Northwestern University, 9700 South Cass
Avenue, Argonne, IL 60439, USA.

d) Departments of Physiological Sciences and of Biochemistry and Molecular Biology and
Center for Environmental and Human Toxicology, University of Florida, University of
Florida, Gainesville, FL 32610, USA.

File: DWTR_MN_Fine.txt
10,1397
10.2,1284
10.4,1323
10.6,1293
10.8,1362
11,1351
11.2,1254
11.4,1295
11.6,1286
11.8,1231
12,1228
12.2,1212
12.4,1213
12.6,1193
12.8,1189
13,1103
13.2,1093
13.4,1104
13.6,1120
13.8,1143
14,1121
14.2,1043
14.4,975
14.6,979
14.8,963
15,980
15.2,966
15.4,972
15.6,912
15.8,1000
16,969
16.2,918
16.4,885
16.6,845
16.8,854
17,927
17.2,893
17.4,850
17.6,793
17.8,780
18,827
18.2,814
18.4,849
18.6,818
18.8,755
19,700
19.2,806
19.4,803
19.6,744
19.8,824
20,696
20.2,735
20.4,742
20.6,708
20.8,753
21,716
21.2,719
21.4,683
21.6,741
21.8,676
22,703
22.2,658
22.4,703
22.6,681
22.8,861
23,2196
23.2,746
23.4,659
23.6,660
23.8,594
24,585
24.2,575
24.4,627
24.6,582
24.8,574
25,554
25.2,583
25.4,540
25.6,544
25.8,508
26,505
26.2,569
26.4,567
26.6,555
26.8,517
27,526
27.2,452
27.4,512
27.6,485
27.8,485
28,499
28.2,482
28.4,539
28.6,569
28.8,570
29,713
29.2,2847
29.4,15617
29.6,1084
29.8,576
30,546
30.2,503
30.4,476
30.6,460
30.8,495
31,423
31.2,487
31.4,787
31.6,463
31.8,431
32,388
32.2,434
32.4,424
32.6,399
32.8,400
33,404
33.2,395
33.4,376
33.6,402
33.8,444
34,421
34.2,450
34.4,444
34.6,471
34.8,473
35,431
35.2,409
35.4,405
35.6,427
35.8,859
36,1712
36.2,407
36.4,368
36.6,381
36.8,384
37,346
37.2,368
37.4,356
37.6,346
37.8,354
38,401
38.2,362
38.4,364
38.6,370
38.8,425
39,404
39.2,719
39.4,3297
39.6,600
39.8,394
40,334
40.2,340
40.4,322
40.6,359
40.8,300
41,328
41.2,347
41.4,310
41.6,324
41.8,329
42,291
42.2,326
42.4,309
42.6,314
42.8,377
43,915
43.2,1890
43.4,437
43.6,378
43.8,323
44,341
44.2,291
44.4,291
44.6,318
44.8,294
45,313
45.2,321
45.4,275
45.6,296
45.8,299
46,317
46.2,289
46.4,296
46.6,331
46.8,374
47,778
47.2,893
47.4,1459
47.6,2026
47.8,462
48,343
48.2,402
48.4,1801
48.6,2016
48.8,400
49,286
49.2,270
49.4,289
49.6,241
49.8,254
50,270
50.2,272
50.4,245
50.6,257
50.8,251
51,253
51.2,261
51.4,271
51.6,271
51.8,235
52,273
52.2,200
52.4,212
52.6,245
52.8,265
53,231
53.2,251
53.4,226
53.6,234
53.8,216
54,216
54.2,236
54.4,203
54.6,205
54.8,224
55,218
55.2,270
55.4,208
55.6,259
55.8,228
56,205
56.2,240
56.4,312
56.6,495
56.8,268
57,246
57.2,434
57.4,1260
57.6,468
57.8,263
58,279
58.2,349
58.4,204
58.6,219
58.8,247
59,227
59.2,221
59.4,247
59.6,251
59.8,272
60,266